"date","time","group","subject","build","blocknum","trialnum","blockcode","trialcode","pretrialpause","posttrialpause","windowcenter","trialduration","trialtimeout","blocktimeout","response","correct","latency","inwindow","stimulusnumber1","stimulusitem1","stimulusvpos1","stimulushpos1","stimulusonset1","stimulusnumber2","stimulusitem2","stimulusvpos2","stimulushpos2","stimulusonset2"
"011417","12:49:29","107","107","4.0.10.0","1","2","categorization_causality","attributeA","0","250","0","0","0","0","23","1","4491","0","8","predicts","50pct","50pct","0","0","0","0","0","0"
"011417","12:49:29","107","107","4.0.10.0","1","3","categorization_causality","attributeB","0","250","0","0","0","0","18","0","2632","0","5","precludes","50pct","50pct","0","1","X","75pct","50pct","1483"
"011417","12:49:29","107","107","4.0.10.0","1","4","categorization_causality","attributeB","0","250","0","0","0","0","18","1","1538","0","4","averts","50pct","50pct","0","0","0","0","0","0"
"011417","12:49:29","107","107","4.0.10.0","1","5","categorization_causality","attributeA","0","250","0","0","0","0","23","1","812","0","4","starts","50pct","50pct","0","0","0","0","0","0"
"011417","12:49:29","107","107","4.0.10.0","1","6","categorization_causality","attributeB","0","250","0","0","0","0","18","1","2067","0","6","avoids","50pct","50pct","0","0","0","0","0","0"
"011417","12:49:29","107","107","4.0.10.0","1","7","categorization_causality","attributeA","0","250","0","0","0","0","23","1","730","0","6","affects","50pct","50pct","0","0","0","0","0","0"
"011417","12:49:29","107","107","4.0.10.0","1","8","categorization_causality","attributeA","0","250","0","0","0","0","23","1","1407","0","1","leads to","50pct","50pct","0","0","0","0","0","0"
"011417","12:49:29","107","107","4.0.10.0","1","9","categorization_causality","attributeB","0","250","0","0","0","0","18","1","920","0","3","ceases","50pct","50pct","0","0","0","0","0","0"
"011417","12:49:29","107","107","4.0.10.0","1","10","categorization_causality","attributeA","0","250","0","0","0","0","23","1","1060","0","7","influences","50pct","50pct","0","0","0","0","0","0"
"011417","12:49:29","107","107","4.0.10.0","1","11","categorization_causality","attributeB","0","250","0","0","0","0","18","1","689","0","2","halts","50pct","50pct","0","0","0","0","0","0"
"011417","12:49:29","107","107","4.0.10.0","1","12","categorization_causality","attributeA","0","250","0","0","0","0","23","1","1636","0","3","produces","50pct","50pct","0","0","0","0","0","0"
"011417","12:49:29","107","107","4.0.10.0","1","13","categorization_causality","attributeB","0","250","0","0","0","0","18","1","1410","0","8","blocks","50pct","50pct","0","0","0","0","0","0"
"011417","12:49:29","107","107","4.0.10.0","1","14","categorization_causality","attributeA","0","250","0","0","0","0","23","1","933","0","5","determines","50pct","50pct","0","0","0","0","0","0"
"011417","12:49:29","107","107","4.0.10.0","1","15","categorization_causality","attributeA","0","250","0","0","0","0","23","1","1363","0","2","results in","50pct","50pct","0","0","0","0","0","0"
"011417","12:49:29","107","107","4.0.10.0","1","16","categorization_causality","attributeA","0","250","0","0","0","0","23","1","1729","0","7","influences","50pct","50pct","0","0","0","0","0","0"
"011417","12:49:29","107","107","4.0.10.0","1","17","categorization_causality","attributeB","0","250","0","0","0","0","18","1","631","0","7","ends","50pct","50pct","0","0","0","0","0","0"
"011417","12:49:29","107","107","4.0.10.0","1","18","categorization_causality","attributeB","0","250","0","0","0","0","18","1","454","0","1","stops","50pct","50pct","0","0","0","0","0","0"
"011417","12:49:29","107","107","4.0.10.0","1","19","categorization_causality","attributeA","0","250","0","0","0","0","23","1","703","0","5","determines","50pct","50pct","0","0","0","0","0","0"
"011417","12:49:29","107","107","4.0.10.0","1","20","categorization_causality","attributeB","0","250","0","0","0","0","18","0","1476","0","2","halts","50pct","50pct","0","1","X","75pct","50pct","1066"
"011417","12:49:29","107","107","4.0.10.0","1","21","categorization_causality","attributeB","0","250","0","0","0","0","18","1","1086","0","3","ceases","50pct","50pct","0","0","0","0","0","0"
"011417","12:49:29","107","107","4.0.10.0","1","22","categorization_causality","attributeA","0","250","0","0","0","0","23","1","600","0","3","produces","50pct","50pct","0","0","0","0","0","0"
"011417","12:49:29","107","107","4.0.10.0","1","23","categorization_causality","attributeA","0","250","0","0","0","0","23","1","1021","0","2","results in","50pct","50pct","0","0","0","0","0","0"
"011417","12:49:29","107","107","4.0.10.0","1","24","categorization_causality","attributeA","0","250","0","0","0","0","23","1","728","0","6","affects","50pct","50pct","0","0","0","0","0","0"
"011417","12:49:29","107","107","4.0.10.0","1","25","categorization_causality","attributeB","0","250","0","0","0","0","18","1","514","0","7","ends","50pct","50pct","0","0","0","0","0","0"
"011417","12:49:29","107","107","4.0.10.0","1","26","categorization_causality","attributeA","0","250","0","0","0","0","23","1","1066","0","1","leads to","50pct","50pct","0","0","0","0","0","0"
"011417","12:49:29","107","107","4.0.10.0","1","27","categorization_causality","attributeB","0","250","0","0","0","0","18","1","610","0","8","blocks","50pct","50pct","0","0","0","0","0","0"
"011417","12:49:29","107","107","4.0.10.0","1","28","categorization_causality","attributeA","0","250","0","0","0","0","23","1","520","0","8","predicts","50pct","50pct","0","0","0","0","0","0"
"011417","12:49:29","107","107","4.0.10.0","1","29","categorization_causality","attributeA","0","250","0","0","0","0","23","1","677","0","4","starts","50pct","50pct","0","0","0","0","0","0"
"011417","12:49:29","107","107","4.0.10.0","1","30","categorization_causality","attributeB","0","250","0","0","0","0","18","1","826","0","1","stops","50pct","50pct","0","0","0","0","0","0"
"011417","12:49:29","107","107","4.0.10.0","1","31","categorization_causality","attributeA","0","250","0","0","0","0","23","1","563","0","4","starts","50pct","50pct","0","0","0","0","0","0"
"011417","12:49:29","107","107","4.0.10.0","1","32","categorization_causality","attributeA","0","250","0","0","0","0","23","1","1148","0","6","affects","50pct","50pct","0","0","0","0","0","0"
"011417","12:49:29","107","107","4.0.10.0","1","33","categorization_causality","attributeA","0","250","0","0","0","0","23","1","708","0","3","produces","50pct","50pct","0","0","0","0","0","0"
"011417","12:49:29","107","107","4.0.10.0","1","34","categorization_causality","attributeB","0","250","0","0","0","0","18","0","970","0","4","averts","50pct","50pct","0","1","X","75pct","50pct","583"
"011417","12:49:29","107","107","4.0.10.0","1","35","categorization_causality","attributeB","0","250","0","0","0","0","18","1","2409","0","5","precludes","50pct","50pct","0","0","0","0","0","0"
"011417","12:49:29","107","107","4.0.10.0","1","36","categorization_causality","attributeB","0","250","0","0","0","0","18","1","763","0","6","avoids","50pct","50pct","0","0","0","0","0","0"
"011417","12:49:29","107","107","4.0.10.0","1","37","categorization_causality","attributeB","0","250","0","0","0","0","18","1","514","0","5","precludes","50pct","50pct","0","0","0","0","0","0"
"011417","12:49:29","107","107","4.0.10.0","1","38","categorization_causality","attributeB","0","250","0","0","0","0","18","1","572","0","1","stops","50pct","50pct","0","0","0","0","0","0"
"011417","12:49:29","107","107","4.0.10.0","1","39","categorization_causality","attributeA","0","250","0","0","0","0","23","0","1108","0","8","predicts","50pct","50pct","0","1","X","75pct","50pct","683"
"011417","12:49:29","107","107","4.0.10.0","1","40","categorization_causality","attributeB","0","250","0","0","0","0","18","1","1920","0","3","ceases","50pct","50pct","0","0","0","0","0","0"
"011417","12:49:29","107","107","4.0.10.0","1","41","categorization_causality","attributeB","0","250","0","0","0","0","18","1","681","0","8","blocks","50pct","50pct","0","0","0","0","0","0"
"011417","12:49:29","107","107","4.0.10.0","1","42","categorization_causality","attributeA","0","250","0","0","0","0","23","1","1301","0","1","leads to","50pct","50pct","0","0","0","0","0","0"
"011417","12:49:29","107","107","4.0.10.0","1","43","categorization_causality","attributeB","0","250","0","0","0","0","18","1","564","0","2","halts","50pct","50pct","0","0","0","0","0","0"
"011417","12:49:29","107","107","4.0.10.0","1","44","categorization_causality","attributeA","0","250","0","0","0","0","23","1","2467","0","5","determines","50pct","50pct","0","0","0","0","0","0"
"011417","12:49:29","107","107","4.0.10.0","1","45","categorization_causality","attributeA","0","250","0","0","0","0","23","0","962","0","2","results in","50pct","50pct","0","1","X","75pct","50pct","583"
"011417","12:49:29","107","107","4.0.10.0","1","46","categorization_causality","attributeA","0","250","0","0","0","0","23","0","1368","0","7","influences","50pct","50pct","0","1","X","75pct","50pct","966"
"011417","12:49:29","107","107","4.0.10.0","1","47","categorization_causality","attributeB","0","250","0","0","0","0","18","1","657","0","7","ends","50pct","50pct","0","0","0","0","0","0"
"011417","12:49:29","107","107","4.0.10.0","1","48","categorization_causality","attributeB","0","250","0","0","0","0","18","1","549","0","6","avoids","50pct","50pct","0","0","0","0","0","0"
"011417","12:49:29","107","107","4.0.10.0","1","49","categorization_causality","attributeA","0","250","0","0","0","0","23","1","803","0","2","results in","50pct","50pct","0","0","0","0","0","0"
"011417","12:49:29","107","107","4.0.10.0","1","50","categorization_causality","attributeB","0","250","0","0","0","0","18","0","1122","0","4","averts","50pct","50pct","0","1","X","75pct","50pct","800"
"011417","12:49:29","107","107","4.0.10.0","1","51","categorization_causality","attributeB","0","250","0","0","0","0","18","1","608","0","7","ends","50pct","50pct","0","0","0","0","0","0"
"011417","12:49:29","107","107","4.0.10.0","1","52","categorization_causality","attributeA","0","250","0","0","0","0","23","1","455","0","5","determines","50pct","50pct","0","0","0","0","0","0"
"011417","12:49:29","107","107","4.0.10.0","1","53","categorization_causality","attributeA","0","250","0","0","0","0","23","1","687","0","4","starts","50pct","50pct","0","0","0","0","0","0"
"011417","12:49:29","107","107","4.0.10.0","1","54","categorization_causality","attributeB","0","250","0","0","0","0","18","0","771","0","4","averts","50pct","50pct","0","1","X","75pct","50pct","399"
"011417","12:49:29","107","107","4.0.10.0","1","55","categorization_causality","attributeA","0","250","0","0","0","0","23","0","893","0","8","predicts","50pct","50pct","0","1","X","75pct","50pct","483"
"011417","12:49:29","107","107","4.0.10.0","1","56","categorization_causality","attributeA","0","250","0","0","0","0","23","1","458","0","3","produces","50pct","50pct","0","0","0","0","0","0"
"011417","12:49:29","107","107","4.0.10.0","1","57","categorization_causality","attributeA","0","250","0","0","0","0","23","1","743","0","7","influences","50pct","50pct","0","0","0","0","0","0"
"011417","12:49:29","107","107","4.0.10.0","1","58","categorization_causality","attributeB","0","250","0","0","0","0","18","1","467","0","8","blocks","50pct","50pct","0","0","0","0","0","0"
"011417","12:49:29","107","107","4.0.10.0","1","59","categorization_causality","attributeB","0","250","0","0","0","0","18","1","881","0","3","ceases","50pct","50pct","0","0","0","0","0","0"
"011417","12:49:29","107","107","4.0.10.0","1","60","categorization_causality","attributeB","0","250","0","0","0","0","18","1","1363","0","6","avoids","50pct","50pct","0","0","0","0","0","0"
"011417","12:49:29","107","107","4.0.10.0","1","61","categorization_causality","attributeB","0","250","0","0","0","0","18","1","881","0","5","precludes","50pct","50pct","0","0","0","0","0","0"
"011417","12:49:29","107","107","4.0.10.0","1","62","categorization_causality","attributeB","0","250","0","0","0","0","18","1","1365","0","2","halts","50pct","50pct","0","0","0","0","0","0"
"011417","12:49:29","107","107","4.0.10.0","1","63","categorization_causality","attributeA","0","250","0","0","0","0","23","1","675","0","6","affects","50pct","50pct","0","0","0","0","0","0"
"011417","12:49:29","107","107","4.0.10.0","1","64","categorization_causality","attributeA","0","250","0","0","0","0","23","1","727","0","1","leads to","50pct","50pct","0","0","0","0","0","0"
"011417","12:49:29","107","107","4.0.10.0","1","65","categorization_causality","attributeB","0","250","0","0","0","0","18","1","1302","0","1","stops","50pct","50pct","0","0","0","0","0","0"
"011417","12:49:29","107","107","4.0.10.0","1","66","categorization_causality","attributeA","0","250","0","0","0","0","23","1","2529","0","8","predicts","50pct","50pct","0","0","0","0","0","0"
"011417","12:49:29","107","107","4.0.10.0","1","67","categorization_causality","attributeB","0","250","0","0","0","0","18","1","499","0","8","blocks","50pct","50pct","0","0","0","0","0","0"
"011417","12:49:29","107","107","4.0.10.0","1","68","categorization_causality","attributeA","0","250","0","0","0","0","23","1","2792","0","7","influences","50pct","50pct","0","0","0","0","0","0"
"011417","12:49:29","107","107","4.0.10.0","1","69","categorization_causality","attributeA","0","250","0","0","0","0","23","1","477","0","6","affects","50pct","50pct","0","0","0","0","0","0"
"011417","12:49:29","107","107","4.0.10.0","1","70","categorization_causality","attributeA","0","250","0","0","0","0","23","0","1431","0","5","determines","50pct","50pct","0","1","X","75pct","50pct","1049"
"011417","12:49:29","107","107","4.0.10.0","1","71","categorization_causality","attributeB","0","250","0","0","0","0","18","1","575","0","3","ceases","50pct","50pct","0","0","0","0","0","0"
"011417","12:49:29","107","107","4.0.10.0","1","72","categorization_causality","attributeB","0","250","0","0","0","0","18","0","1032","0","5","precludes","50pct","50pct","0","1","X","75pct","50pct","700"
"011417","12:49:29","107","107","4.0.10.0","1","73","categorization_causality","attributeA","0","250","0","0","0","0","23","1","552","0","1","leads to","50pct","50pct","0","0","0","0","0","0"
"011417","12:49:29","107","107","4.0.10.0","1","74","categorization_causality","attributeB","0","250","0","0","0","0","18","1","669","0","1","stops","50pct","50pct","0","0","0","0","0","0"
"011417","12:49:29","107","107","4.0.10.0","1","75","categorization_causality","attributeA","0","250","0","0","0","0","23","0","2371","0","2","results in","50pct","50pct","0","1","X","75pct","50pct","2016"
"011417","12:49:29","107","107","4.0.10.0","1","76","categorization_causality","attributeB","0","250","0","0","0","0","18","0","943","0","6","avoids","50pct","50pct","0","1","X","75pct","50pct","599"
"011417","12:49:29","107","107","4.0.10.0","1","77","categorization_causality","attributeB","0","250","0","0","0","0","18","1","463","0","4","averts","50pct","50pct","0","0","0","0","0","0"
"011417","12:49:29","107","107","4.0.10.0","1","78","categorization_causality","attributeB","0","250","0","0","0","0","18","1","374","0","7","ends","50pct","50pct","0","0","0","0","0","0"
"011417","12:49:29","107","107","4.0.10.0","1","79","categorization_causality","attributeA","0","250","0","0","0","0","23","1","558","0","3","produces","50pct","50pct","0","0","0","0","0","0"
"011417","12:49:29","107","107","4.0.10.0","1","80","categorization_causality","attributeB","0","250","0","0","0","0","18","1","516","0","2","halts","50pct","50pct","0","0","0","0","0","0"
"011417","12:49:29","107","107","4.0.10.0","1","81","categorization_causality","attributeA","0","250","0","0","0","0","23","1","510","0","4","starts","50pct","50pct","0","0","0","0","0","0"
"011417","12:49:29","107","107","4.0.10.0","2","2","categorization_causality","attributeA","0","250","0","0","0","0","23","1","937","0","3","produces","50pct","50pct","0","0","0","0","0","0"
"011417","12:49:29","107","107","4.0.10.0","2","3","categorization_causality","attributeB","0","250","0","0","0","0","18","1","492","0","8","blocks","50pct","50pct","0","0","0","0","0","0"
"011417","12:49:29","107","107","4.0.10.0","2","4","categorization_causality","attributeB","0","250","0","0","0","0","18","1","445","0","7","ends","50pct","50pct","0","0","0","0","0","0"
"011417","12:49:29","107","107","4.0.10.0","2","5","categorization_causality","attributeA","0","250","0","0","0","0","23","1","2017","0","2","results in","50pct","50pct","0","0","0","0","0","0"
"011417","12:49:29","107","107","4.0.10.0","2","6","categorization_causality","attributeA","0","250","0","0","0","0","23","1","389","0","4","starts","50pct","50pct","0","0","0","0","0","0"
"011417","12:49:29","107","107","4.0.10.0","2","7","categorization_causality","attributeA","0","250","0","0","0","0","23","1","2358","0","6","affects","50pct","50pct","0","0","0","0","0","0"
"011417","12:49:29","107","107","4.0.10.0","2","8","categorization_causality","attributeB","0","250","0","0","0","0","18","1","670","0","4","averts","50pct","50pct","0","0","0","0","0","0"
"011417","12:49:29","107","107","4.0.10.0","2","9","categorization_causality","attributeA","0","250","0","0","0","0","23","1","1546","0","8","predicts","50pct","50pct","0","0","0","0","0","0"
"011417","12:49:29","107","107","4.0.10.0","2","10","categorization_causality","attributeA","0","250","0","0","0","0","23","0","1926","0","7","influences","50pct","50pct","0","1","X","75pct","50pct","1516"
"011417","12:49:29","107","107","4.0.10.0","2","11","categorization_causality","attributeB","0","250","0","0","0","0","18","1","918","0","5","precludes","50pct","50pct","0","0","0","0","0","0"
"011417","12:49:29","107","107","4.0.10.0","2","12","categorization_causality","attributeA","0","250","0","0","0","0","23","1","1255","0","5","determines","50pct","50pct","0","0","0","0","0","0"
"011417","12:49:29","107","107","4.0.10.0","2","13","categorization_causality","attributeB","0","250","0","0","0","0","18","1","614","0","2","halts","50pct","50pct","0","0","0","0","0","0"
"011417","12:49:29","107","107","4.0.10.0","2","14","categorization_causality","attributeA","0","250","0","0","0","0","23","1","1052","0","1","leads to","50pct","50pct","0","0","0","0","0","0"
"011417","12:49:29","107","107","4.0.10.0","2","15","categorization_causality","attributeB","0","250","0","0","0","0","18","1","1038","0","3","ceases","50pct","50pct","0","0","0","0","0","0"
"011417","12:49:29","107","107","4.0.10.0","2","16","categorization_causality","attributeB","0","250","0","0","0","0","18","1","658","0","1","stops","50pct","50pct","0","0","0","0","0","0"
"011417","12:49:29","107","107","4.0.10.0","2","17","categorization_causality","attributeB","0","250","0","0","0","0","18","1","632","0","6","avoids","50pct","50pct","0","0","0","0","0","0"
"011417","12:49:29","107","107","4.0.10.0","2","18","categorization_causality","attributeB","0","250","0","0","0","0","18","1","439","0","6","avoids","50pct","50pct","0","0","0","0","0","0"
"011417","12:49:29","107","107","4.0.10.0","2","19","categorization_causality","attributeA","0","250","0","0","0","0","23","1","1149","0","1","leads to","50pct","50pct","0","0","0","0","0","0"
"011417","12:49:29","107","107","4.0.10.0","2","20","categorization_causality","attributeB","0","250","0","0","0","0","18","1","609","0","3","ceases","50pct","50pct","0","0","0","0","0","0"
"011417","12:49:29","107","107","4.0.10.0","2","21","categorization_causality","attributeA","0","250","0","0","0","0","23","1","3816","0","6","affects","50pct","50pct","0","0","0","0","0","0"
"011417","12:49:29","107","107","4.0.10.0","2","22","categorization_causality","attributeA","0","250","0","0","0","0","23","0","1472","0","2","results in","50pct","50pct","0","1","X","75pct","50pct","1049"
"011417","12:49:29","107","107","4.0.10.0","2","23","categorization_causality","attributeA","0","250","0","0","0","0","23","0","2102","0","7","influences","50pct","50pct","0","1","X","75pct","50pct","1633"
"011417","12:49:29","107","107","4.0.10.0","2","24","categorization_causality","attributeA","0","250","0","0","0","0","23","0","1211","0","3","produces","50pct","50pct","0","1","X","75pct","50pct","866"
"011417","12:49:29","107","107","4.0.10.0","2","25","categorization_causality","attributeB","0","250","0","0","0","0","18","0","588","0","7","ends","50pct","50pct","0","1","X","75pct","50pct","250"
"011417","12:49:29","107","107","4.0.10.0","2","26","categorization_causality","attributeB","0","250","0","0","0","0","18","1","756","0","5","precludes","50pct","50pct","0","0","0","0","0","0"
"011417","12:49:29","107","107","4.0.10.0","2","27","categorization_causality","attributeA","0","250","0","0","0","0","23","1","586","0","8","predicts","50pct","50pct","0","0","0","0","0","0"
"011417","12:49:29","107","107","4.0.10.0","2","28","categorization_causality","attributeA","0","250","0","0","0","0","23","0","1034","0","5","determines","50pct","50pct","0","1","X","75pct","50pct","549"
"011417","12:49:29","107","107","4.0.10.0","2","29","categorization_causality","attributeB","0","250","0","0","0","0","18","1","559","0","1","stops","50pct","50pct","0","0","0","0","0","0"
"011417","12:49:29","107","107","4.0.10.0","2","30","categorization_causality","attributeB","0","250","0","0","0","0","18","1","470","0","8","blocks","50pct","50pct","0","0","0","0","0","0"
"011417","12:49:29","107","107","4.0.10.0","2","31","categorization_causality","attributeA","0","250","0","0","0","0","23","1","652","0","4","starts","50pct","50pct","0","0","0","0","0","0"
"011417","12:49:29","107","107","4.0.10.0","2","32","categorization_causality","attributeA","0","250","0","0","0","0","23","1","1894","0","8","predicts","50pct","50pct","0","0","0","0","0","0"
"011417","12:49:29","107","107","4.0.10.0","2","33","categorization_causality","attributeA","0","250","0","0","0","0","23","1","847","0","1","leads to","50pct","50pct","0","0","0","0","0","0"
"011417","12:49:29","107","107","4.0.10.0","2","34","categorization_causality","attributeA","0","250","0","0","0","0","23","1","2966","0","3","produces","50pct","50pct","0","0","0","0","0","0"
"011417","12:49:29","107","107","4.0.10.0","2","35","categorization_causality","attributeA","0","250","0","0","0","0","23","1","484","0","2","results in","50pct","50pct","0","0","0","0","0","0"
"011417","12:49:29","107","107","4.0.10.0","2","36","categorization_causality","attributeB","0","250","0","0","0","0","18","1","506","0","2","halts","50pct","50pct","0","0","0","0","0","0"
"011417","12:49:29","107","107","4.0.10.0","2","37","categorization_causality","attributeA","0","250","0","0","0","0","23","1","479","0","4","starts","50pct","50pct","0","0","0","0","0","0"
"011417","12:49:29","107","107","4.0.10.0","2","38","categorization_causality","attributeB","0","250","0","0","0","0","18","1","632","0","4","averts","50pct","50pct","0","0","0","0","0","0"
"011417","12:49:29","107","107","4.0.10.0","2","39","categorization_causality","attributeA","0","250","0","0","0","0","23","1","692","0","6","affects","50pct","50pct","0","0","0","0","0","0"
"011417","12:49:29","107","107","4.0.10.0","2","40","categorization_causality","attributeA","0","250","0","0","0","0","23","1","1687","0","5","determines","50pct","50pct","0","0","0","0","0","0"
"011417","12:49:29","107","107","4.0.10.0","2","41","categorization_causality","attributeB","0","250","0","0","0","0","18","1","542","0","2","halts","50pct","50pct","0","0","0","0","0","0"
"011417","12:49:29","107","107","4.0.10.0","2","42","categorization_causality","attributeA","0","250","0","0","0","0","23","1","1036","0","7","influences","50pct","50pct","0","0","0","0","0","0"
"011417","12:49:29","107","107","4.0.10.0","2","43","categorization_causality","attributeB","0","250","0","0","0","0","18","1","544","0","4","averts","50pct","50pct","0","0","0","0","0","0"
"011417","12:49:29","107","107","4.0.10.0","2","44","categorization_causality","attributeA","0","250","0","0","0","0","23","1","1278","0","8","predicts","50pct","50pct","0","0","0","0","0","0"
"011417","12:49:29","107","107","4.0.10.0","2","45","categorization_causality","attributeB","0","250","0","0","0","0","18","1","520","0","8","blocks","50pct","50pct","0","0","0","0","0","0"
"011417","12:49:29","107","107","4.0.10.0","2","46","categorization_causality","attributeA","0","250","0","0","0","0","23","1","672","0","6","affects","50pct","50pct","0","0","0","0","0","0"
"011417","12:49:29","107","107","4.0.10.0","2","47","categorization_causality","attributeA","0","250","0","0","0","0","23","0","1337","0","1","leads to","50pct","50pct","0","1","X","75pct","50pct","983"
"011417","12:49:29","107","107","4.0.10.0","2","48","categorization_causality","attributeB","0","250","0","0","0","0","18","1","959","0","1","stops","50pct","50pct","0","0","0","0","0","0"
"011417","12:49:29","107","107","4.0.10.0","2","49","categorization_causality","attributeB","0","250","0","0","0","0","18","0","840","0","7","ends","50pct","50pct","0","1","X","75pct","50pct","533"
"011417","12:49:29","107","107","4.0.10.0","2","50","categorization_causality","attributeB","0","250","0","0","0","0","18","0","931","0","5","precludes","50pct","50pct","0","1","X","75pct","50pct","616"
"011417","12:49:29","107","107","4.0.10.0","2","51","categorization_causality","attributeB","0","250","0","0","0","0","18","1","819","0","6","avoids","50pct","50pct","0","0","0","0","0","0"
"011417","12:49:29","107","107","4.0.10.0","2","52","categorization_causality","attributeB","0","250","0","0","0","0","18","1","622","0","3","ceases","50pct","50pct","0","0","0","0","0","0"
"011417","12:49:29","107","107","4.0.10.0","2","53","categorization_causality","attributeA","0","250","0","0","0","0","23","1","558","0","7","influences","50pct","50pct","0","0","0","0","0","0"
"011417","12:49:29","107","107","4.0.10.0","2","54","categorization_causality","attributeA","0","250","0","0","0","0","23","1","1257","0","3","produces","50pct","50pct","0","0","0","0","0","0"
"011417","12:49:29","107","107","4.0.10.0","2","55","categorization_causality","attributeB","0","250","0","0","0","0","18","1","839","0","3","ceases","50pct","50pct","0","0","0","0","0","0"
"011417","12:49:29","107","107","4.0.10.0","2","56","categorization_causality","attributeA","0","250","0","0","0","0","23","1","553","0","4","starts","50pct","50pct","0","0","0","0","0","0"
"011417","12:49:29","107","107","4.0.10.0","2","57","categorization_causality","attributeA","0","250","0","0","0","0","23","0","1110","0","5","determines","50pct","50pct","0","1","X","75pct","50pct","616"
"011417","12:49:29","107","107","4.0.10.0","2","58","categorization_causality","attributeB","0","250","0","0","0","0","18","1","563","0","7","ends","50pct","50pct","0","0","0","0","0","0"
"011417","12:49:29","107","107","4.0.10.0","2","59","categorization_causality","attributeB","0","250","0","0","0","0","18","0","1137","0","5","precludes","50pct","50pct","0","1","X","75pct","50pct","583"
"011417","12:49:29","107","107","4.0.10.0","2","60","categorization_causality","attributeB","0","250","0","0","0","0","18","1","1296","0","2","halts","50pct","50pct","0","0","0","0","0","0"
"011417","12:49:29","107","107","4.0.10.0","2","61","categorization_causality","attributeB","0","250","0","0","0","0","18","1","411","0","1","stops","50pct","50pct","0","0","0","0","0","0"
"011417","12:49:29","107","107","4.0.10.0","2","62","categorization_causality","attributeB","0","250","0","0","0","0","18","0","1405","0","4","averts","50pct","50pct","0","1","X","75pct","50pct","583"
"011417","12:49:29","107","107","4.0.10.0","2","63","categorization_causality","attributeB","0","250","0","0","0","0","18","1","534","0","8","blocks","50pct","50pct","0","0","0","0","0","0"
"011417","12:49:29","107","107","4.0.10.0","2","64","categorization_causality","attributeA","0","250","0","0","0","0","23","1","916","0","2","results in","50pct","50pct","0","0","0","0","0","0"
"011417","12:49:29","107","107","4.0.10.0","2","65","categorization_causality","attributeA","0","250","0","0","0","0","23","1","1075","0","3","produces","50pct","50pct","0","0","0","0","0","0"
"011417","12:49:29","107","107","4.0.10.0","2","66","categorization_causality","attributeB","0","250","0","0","0","0","18","1","665","0","6","avoids","50pct","50pct","0","0","0","0","0","0"
"011417","12:49:29","107","107","4.0.10.0","2","67","categorization_causality","attributeB","0","250","0","0","0","0","18","1","572","0","3","ceases","50pct","50pct","0","0","0","0","0","0"
"011417","12:49:29","107","107","4.0.10.0","2","68","categorization_causality","attributeA","0","250","0","0","0","0","23","0","787","0","4","starts","50pct","50pct","0","1","X","75pct","50pct","433"
"011417","12:49:29","107","107","4.0.10.0","2","69","categorization_causality","attributeB","0","250","0","0","0","0","18","1","922","0","1","stops","50pct","50pct","0","0","0","0","0","0"
"011417","12:49:29","107","107","4.0.10.0","2","70","categorization_causality","attributeA","0","250","0","0","0","0","23","0","1721","0","7","influences","50pct","50pct","0","1","X","75pct","50pct","1249"
"011417","12:49:29","107","107","4.0.10.0","2","71","categorization_causality","attributeB","0","250","0","0","0","0","18","1","864","0","6","avoids","50pct","50pct","0","0","0","0","0","0"
"011417","12:49:29","107","107","4.0.10.0","2","72","categorization_causality","attributeA","0","250","0","0","0","0","23","1","547","0","2","results in","50pct","50pct","0","0","0","0","0","0"
"011417","12:49:29","107","107","4.0.10.0","2","73","categorization_causality","attributeA","0","250","0","0","0","0","23","1","695","0","5","determines","50pct","50pct","0","0","0","0","0","0"
"011417","12:49:29","107","107","4.0.10.0","2","74","categorization_causality","attributeB","0","250","0","0","0","0","18","1","512","0","7","ends","50pct","50pct","0","0","0","0","0","0"
"011417","12:49:29","107","107","4.0.10.0","2","75","categorization_causality","attributeA","0","250","0","0","0","0","23","1","875","0","1","leads to","50pct","50pct","0","0","0","0","0","0"
"011417","12:49:29","107","107","4.0.10.0","2","76","categorization_causality","attributeA","0","250","0","0","0","0","23","1","1196","0","8","predicts","50pct","50pct","0","0","0","0","0","0"
"011417","12:49:29","107","107","4.0.10.0","2","77","categorization_causality","attributeB","0","250","0","0","0","0","18","0","1039","0","4","averts","50pct","50pct","0","1","X","75pct","50pct","616"
"011417","12:49:29","107","107","4.0.10.0","2","78","categorization_causality","attributeB","0","250","0","0","0","0","18","0","874","0","5","precludes","50pct","50pct","0","1","X","75pct","50pct","583"
"011417","12:49:29","107","107","4.0.10.0","2","79","categorization_causality","attributeB","0","250","0","0","0","0","18","1","584","0","2","halts","50pct","50pct","0","0","0","0","0","0"
"011417","12:49:29","107","107","4.0.10.0","2","80","categorization_causality","attributeB","0","250","0","0","0","0","18","1","398","0","8","blocks","50pct","50pct","0","0","0","0","0","0"
"011417","12:49:29","107","107","4.0.10.0","2","81","categorization_causality","attributeA","0","250","0","0","0","0","23","1","504","0","6","affects","50pct","50pct","0","0","0","0","0","0"
"011417","12:49:29","107","107","4.0.10.0","3","2","categorization_causality","attributeB","0","250","0","0","0","0","18","1","692","0","3","ceases","50pct","50pct","0","0","0","0","0","0"
"011417","12:49:29","107","107","4.0.10.0","3","3","categorization_causality","attributeA","0","250","0","0","0","0","23","1","648","0","8","predicts","50pct","50pct","0","0","0","0","0","0"
"011417","12:49:29","107","107","4.0.10.0","3","4","categorization_causality","attributeB","0","250","0","0","0","0","18","1","635","0","7","ends","50pct","50pct","0","0","0","0","0","0"
"011417","12:49:29","107","107","4.0.10.0","3","5","categorization_causality","attributeB","0","250","0","0","0","0","18","1","952","0","1","stops","50pct","50pct","0","0","0","0","0","0"
"011417","12:49:29","107","107","4.0.10.0","3","6","categorization_causality","attributeB","0","250","0","0","0","0","18","1","442","0","6","avoids","50pct","50pct","0","0","0","0","0","0"
"011417","12:49:29","107","107","4.0.10.0","3","7","categorization_causality","attributeB","0","250","0","0","0","0","18","0","823","0","2","halts","50pct","50pct","0","1","X","75pct","50pct","483"
"011417","12:49:29","107","107","4.0.10.0","3","8","categorization_causality","attributeA","0","250","0","0","0","0","23","1","614","0","2","results in","50pct","50pct","0","0","0","0","0","0"
"011417","12:49:29","107","107","4.0.10.0","3","9","categorization_causality","attributeB","0","250","0","0","0","0","18","1","617","0","8","blocks","50pct","50pct","0","0","0","0","0","0"
"011417","12:49:29","107","107","4.0.10.0","3","10","categorization_causality","attributeB","0","250","0","0","0","0","18","1","489","0","4","averts","50pct","50pct","0","0","0","0","0","0"
"011417","12:49:29","107","107","4.0.10.0","3","11","categorization_causality","attributeB","0","250","0","0","0","0","18","1","519","0","5","precludes","50pct","50pct","0","0","0","0","0","0"
"011417","12:49:29","107","107","4.0.10.0","3","12","categorization_causality","attributeB","0","250","0","0","0","0","18","1","506","0","4","averts","50pct","50pct","0","0","0","0","0","0"
"011417","12:49:29","107","107","4.0.10.0","3","13","categorization_causality","attributeB","0","250","0","0","0","0","18","1","431","0","6","avoids","50pct","50pct","0","0","0","0","0","0"
"011417","12:49:29","107","107","4.0.10.0","3","14","categorization_causality","attributeB","0","250","0","0","0","0","18","1","440","0","8","blocks","50pct","50pct","0","0","0","0","0","0"
"011417","12:49:29","107","107","4.0.10.0","3","15","categorization_causality","attributeA","0","250","0","0","0","0","23","0","1231","0","6","affects","50pct","50pct","0","1","X","75pct","50pct","533"
"011417","12:49:29","107","107","4.0.10.0","3","16","categorization_causality","attributeB","0","250","0","0","0","0","18","1","560","0","7","ends","50pct","50pct","0","0","0","0","0","0"
"011417","12:49:29","107","107","4.0.10.0","3","17","categorization_causality","attributeB","0","250","0","0","0","0","18","1","764","0","5","precludes","50pct","50pct","0","0","0","0","0","0"
"011417","12:49:29","107","107","4.0.10.0","3","18","categorization_causality","attributeA","0","250","0","0","0","0","23","1","871","0","5","determines","50pct","50pct","0","0","0","0","0","0"
"011417","12:49:29","107","107","4.0.10.0","3","19","categorization_causality","attributeA","0","250","0","0","0","0","23","1","946","0","1","leads to","50pct","50pct","0","0","0","0","0","0"
"011417","12:49:29","107","107","4.0.10.0","3","20","categorization_causality","attributeA","0","250","0","0","0","0","23","1","573","0","7","influences","50pct","50pct","0","0","0","0","0","0"
"011417","12:49:29","107","107","4.0.10.0","3","21","categorization_causality","attributeA","0","250","0","0","0","0","23","1","894","0","3","produces","50pct","50pct","0","0","0","0","0","0"
"011417","12:49:29","107","107","4.0.10.0","3","22","categorization_causality","attributeA","0","250","0","0","0","0","23","0","852","0","4","starts","50pct","50pct","0","1","X","75pct","50pct","483"
"011417","12:49:29","107","107","4.0.10.0","3","23","categorization_causality","attributeA","0","250","0","0","0","0","23","1","649","0","8","predicts","50pct","50pct","0","0","0","0","0","0"
"011417","12:49:29","107","107","4.0.10.0","3","24","categorization_causality","attributeB","0","250","0","0","0","0","18","1","499","0","2","halts","50pct","50pct","0","0","0","0","0","0"
"011417","12:49:29","107","107","4.0.10.0","3","25","categorization_causality","attributeA","0","250","0","0","0","0","23","1","672","0","5","determines","50pct","50pct","0","0","0","0","0","0"
"011417","12:49:29","107","107","4.0.10.0","3","26","categorization_causality","attributeA","0","250","0","0","0","0","23","1","606","0","4","starts","50pct","50pct","0","0","0","0","0","0"
"011417","12:49:29","107","107","4.0.10.0","3","27","categorization_causality","attributeA","0","250","0","0","0","0","23","1","568","0","1","leads to","50pct","50pct","0","0","0","0","0","0"
"011417","12:49:29","107","107","4.0.10.0","3","28","categorization_causality","attributeA","0","250","0","0","0","0","23","1","493","0","7","influences","50pct","50pct","0","0","0","0","0","0"
"011417","12:49:29","107","107","4.0.10.0","3","29","categorization_causality","attributeB","0","250","0","0","0","0","18","1","589","0","3","ceases","50pct","50pct","0","0","0","0","0","0"
"011417","12:49:29","107","107","4.0.10.0","3","30","categorization_causality","attributeA","0","250","0","0","0","0","23","1","589","0","2","results in","50pct","50pct","0","0","0","0","0","0"
"011417","12:49:29","107","107","4.0.10.0","3","31","categorization_causality","attributeA","0","250","0","0","0","0","23","1","554","0","6","affects","50pct","50pct","0","0","0","0","0","0"
"011417","12:49:29","107","107","4.0.10.0","3","32","categorization_causality","attributeB","0","250","0","0","0","0","18","1","511","0","1","stops","50pct","50pct","0","0","0","0","0","0"
"011417","12:49:29","107","107","4.0.10.0","3","33","categorization_causality","attributeB","0","250","0","0","0","0","18","1","795","0","6","avoids","50pct","50pct","0","0","0","0","0","0"
"011417","12:49:29","107","107","4.0.10.0","3","34","categorization_causality","attributeA","0","250","0","0","0","0","23","1","600","0","3","produces","50pct","50pct","0","0","0","0","0","0"
"011417","12:49:29","107","107","4.0.10.0","3","35","categorization_causality","attributeB","0","250","0","0","0","0","18","1","556","0","2","halts","50pct","50pct","0","0","0","0","0","0"
"011417","12:49:29","107","107","4.0.10.0","3","36","categorization_causality","attributeB","0","250","0","0","0","0","18","1","765","0","8","blocks","50pct","50pct","0","0","0","0","0","0"
"011417","12:49:29","107","107","4.0.10.0","3","37","categorization_causality","attributeB","0","250","0","0","0","0","18","1","437","0","1","stops","50pct","50pct","0","0","0","0","0","0"
"011417","12:49:29","107","107","4.0.10.0","3","38","categorization_causality","attributeA","0","250","0","0","0","0","23","0","1084","0","7","influences","50pct","50pct","0","1","X","75pct","50pct","633"
"011417","12:49:29","107","107","4.0.10.0","3","39","categorization_causality","attributeA","0","250","0","0","0","0","23","1","602","0","4","starts","50pct","50pct","0","0","0","0","0","0"
"011417","12:49:29","107","107","4.0.10.0","3","40","categorization_causality","attributeA","0","250","0","0","0","0","23","1","485","0","8","predicts","50pct","50pct","0","0","0","0","0","0"
"011417","12:49:29","107","107","4.0.10.0","3","41","categorization_causality","attributeA","0","250","0","0","0","0","23","1","539","0","1","leads to","50pct","50pct","0","0","0","0","0","0"
"011417","12:49:29","107","107","4.0.10.0","3","42","categorization_causality","attributeB","0","250","0","0","0","0","18","1","1015","0","3","ceases","50pct","50pct","0","0","0","0","0","0"
"011417","12:49:29","107","107","4.0.10.0","3","43","categorization_causality","attributeB","0","250","0","0","0","0","18","1","650","0","7","ends","50pct","50pct","0","0","0","0","0","0"
"011417","12:49:29","107","107","4.0.10.0","3","44","categorization_causality","attributeA","0","250","0","0","0","0","23","1","582","0","3","produces","50pct","50pct","0","0","0","0","0","0"
"011417","12:49:29","107","107","4.0.10.0","3","45","categorization_causality","attributeA","0","250","0","0","0","0","23","1","912","0","2","results in","50pct","50pct","0","0","0","0","0","0"
"011417","12:49:29","107","107","4.0.10.0","3","46","categorization_causality","attributeB","0","250","0","0","0","0","18","1","1907","0","4","averts","50pct","50pct","0","0","0","0","0","0"
"011417","12:49:29","107","107","4.0.10.0","3","47","categorization_causality","attributeB","0","250","0","0","0","0","18","0","1271","0","5","precludes","50pct","50pct","0","1","X","75pct","50pct","749"
"011417","12:49:29","107","107","4.0.10.0","3","48","categorization_causality","attributeB","0","250","0","0","0","0","18","0","1131","0","4","averts","50pct","50pct","0","1","X","75pct","50pct","783"
"011417","12:49:29","107","107","4.0.10.0","3","49","categorization_causality","attributeA","0","250","0","0","0","0","23","1","687","0","5","determines","50pct","50pct","0","0","0","0","0","0"
"011417","12:49:29","107","107","4.0.10.0","3","50","categorization_causality","attributeA","0","250","0","0","0","0","23","1","982","0","6","affects","50pct","50pct","0","0","0","0","0","0"
"011417","12:49:29","107","107","4.0.10.0","3","51","categorization_causality","attributeA","0","250","0","0","0","0","23","1","471","0","6","affects","50pct","50pct","0","0","0","0","0","0"
"011417","12:49:29","107","107","4.0.10.0","3","52","categorization_causality","attributeB","0","250","0","0","0","0","18","0","833","0","6","avoids","50pct","50pct","0","1","X","75pct","50pct","466"
"011417","12:49:29","107","107","4.0.10.0","3","53","categorization_causality","attributeB","0","250","0","0","0","0","18","1","1336","0","3","ceases","50pct","50pct","0","0","0","0","0","0"
"011417","12:49:29","107","107","4.0.10.0","3","54","categorization_causality","attributeB","0","250","0","0","0","0","18","1","1206","0","2","halts","50pct","50pct","0","0","0","0","0","0"
"011417","12:49:29","107","107","4.0.10.0","3","55","categorization_causality","attributeA","0","250","0","0","0","0","23","1","647","0","7","influences","50pct","50pct","0","0","0","0","0","0"
"011417","12:49:29","107","107","4.0.10.0","3","56","categorization_causality","attributeB","0","250","0","0","0","0","18","1","928","0","5","precludes","50pct","50pct","0","0","0","0","0","0"
"011417","12:49:29","107","107","4.0.10.0","3","57","categorization_causality","attributeA","0","250","0","0","0","0","23","1","584","0","4","starts","50pct","50pct","0","0","0","0","0","0"
"011417","12:49:29","107","107","4.0.10.0","3","58","categorization_causality","attributeA","0","250","0","0","0","0","23","1","1064","0","3","produces","50pct","50pct","0","0","0","0","0","0"
"011417","12:49:29","107","107","4.0.10.0","3","59","categorization_causality","attributeB","0","250","0","0","0","0","18","1","531","0","7","ends","50pct","50pct","0","0","0","0","0","0"
"011417","12:49:29","107","107","4.0.10.0","3","60","categorization_causality","attributeA","0","250","0","0","0","0","23","1","609","0","2","results in","50pct","50pct","0","0","0","0","0","0"
"011417","12:49:29","107","107","4.0.10.0","3","61","categorization_causality","attributeB","0","250","0","0","0","0","18","1","1009","0","8","blocks","50pct","50pct","0","0","0","0","0","0"
"011417","12:49:29","107","107","4.0.10.0","3","62","categorization_causality","attributeB","0","250","0","0","0","0","18","1","1149","0","1","stops","50pct","50pct","0","0","0","0","0","0"
"011417","12:49:29","107","107","4.0.10.0","3","63","categorization_causality","attributeA","0","250","0","0","0","0","23","1","816","0","1","leads to","50pct","50pct","0","0","0","0","0","0"
"011417","12:49:29","107","107","4.0.10.0","3","64","categorization_causality","attributeA","0","250","0","0","0","0","23","1","737","0","8","predicts","50pct","50pct","0","0","0","0","0","0"
"011417","12:49:29","107","107","4.0.10.0","3","65","categorization_causality","attributeB","0","250","0","0","0","0","18","1","662","0","2","halts","50pct","50pct","0","0","0","0","0","0"
"011417","12:49:29","107","107","4.0.10.0","3","66","categorization_causality","attributeB","0","250","0","0","0","0","18","0","1221","0","6","avoids","50pct","50pct","0","1","X","75pct","50pct","683"
"011417","12:49:29","107","107","4.0.10.0","3","67","categorization_causality","attributeB","0","250","0","0","0","0","18","1","539","0","8","blocks","50pct","50pct","0","0","0","0","0","0"
"011417","12:49:29","107","107","4.0.10.0","3","68","categorization_causality","attributeA","0","250","0","0","0","0","23","0","1279","0","5","determines","50pct","50pct","0","1","X","75pct","50pct","799"
"011417","12:49:29","107","107","4.0.10.0","3","69","categorization_causality","attributeB","0","250","0","0","0","0","18","1","449","0","7","ends","50pct","50pct","0","0","0","0","0","0"
"011417","12:49:29","107","107","4.0.10.0","3","70","categorization_causality","attributeA","0","250","0","0","0","0","23","1","664","0","1","leads to","50pct","50pct","0","0","0","0","0","0"
"011417","12:49:29","107","107","4.0.10.0","3","71","categorization_causality","attributeA","0","250","0","0","0","0","23","1","1006","0","3","produces","50pct","50pct","0","0","0","0","0","0"
"011417","12:49:29","107","107","4.0.10.0","3","72","categorization_causality","attributeB","0","250","0","0","0","0","18","1","959","0","5","precludes","50pct","50pct","0","0","0","0","0","0"
"011417","12:49:29","107","107","4.0.10.0","3","73","categorization_causality","attributeB","0","250","0","0","0","0","18","1","546","0","1","stops","50pct","50pct","0","0","0","0","0","0"
"011417","12:49:29","107","107","4.0.10.0","3","74","categorization_causality","attributeA","0","250","0","0","0","0","23","1","454","0","5","determines","50pct","50pct","0","0","0","0","0","0"
"011417","12:49:29","107","107","4.0.10.0","3","75","categorization_causality","attributeA","0","250","0","0","0","0","23","1","1157","0","7","influences","50pct","50pct","0","0","0","0","0","0"
"011417","12:49:29","107","107","4.0.10.0","3","76","categorization_causality","attributeB","0","250","0","0","0","0","18","1","489","0","3","ceases","50pct","50pct","0","0","0","0","0","0"
"011417","12:49:29","107","107","4.0.10.0","3","77","categorization_causality","attributeA","0","250","0","0","0","0","23","1","569","0","4","starts","50pct","50pct","0","0","0","0","0","0"
"011417","12:49:29","107","107","4.0.10.0","3","78","categorization_causality","attributeB","0","250","0","0","0","0","18","1","3035","0","4","averts","50pct","50pct","0","0","0","0","0","0"
"011417","12:49:29","107","107","4.0.10.0","3","79","categorization_causality","attributeA","0","250","0","0","0","0","23","1","794","0","2","results in","50pct","50pct","0","0","0","0","0","0"
"011417","12:49:29","107","107","4.0.10.0","3","80","categorization_causality","attributeA","0","250","0","0","0","0","23","1","864","0","6","affects","50pct","50pct","0","0","0","0","0","0"
"011417","12:49:29","107","107","4.0.10.0","3","81","categorization_causality","attributeA","0","250","0","0","0","0","23","1","849","0","8","predicts","50pct","50pct","0","0","0","0","0","0"
"011417","14:43:42","108","108","4.0.10.0","1","2","categorization_causality","attributeB","0","250","0","0","0","0","18","1","3197","0","7","ends","50pct","50pct","0","0","0","0","0","0"
"011417","14:43:42","108","108","4.0.10.0","1","3","categorization_causality","attributeA","0","250","0","0","0","0","23","1","3665","0","2","results in","50pct","50pct","0","0","0","0","0","0"
"011417","14:43:42","108","108","4.0.10.0","1","4","categorization_causality","attributeA","0","250","0","0","0","0","23","1","778","0","7","influences","50pct","50pct","0","0","0","0","0","0"
"011417","14:43:42","108","108","4.0.10.0","1","5","categorization_causality","attributeA","0","250","0","0","0","0","23","1","689","0","6","affects","50pct","50pct","1","0","0","0","0","0"
"011417","14:43:42","108","108","4.0.10.0","1","6","categorization_causality","attributeB","0","250","0","0","0","0","18","1","809","0","8","blocks","50pct","50pct","0","0","0","0","0","0"
"011417","14:43:42","108","108","4.0.10.0","1","7","categorization_causality","attributeB","0","250","0","0","0","0","18","1","563","0","3","ceases","50pct","50pct","0","0","0","0","0","0"
"011417","14:43:42","108","108","4.0.10.0","1","8","categorization_causality","attributeA","0","250","0","0","0","0","23","1","742","0","5","determines","50pct","50pct","0","0","0","0","0","0"
"011417","14:43:42","108","108","4.0.10.0","1","9","categorization_causality","attributeB","0","250","0","0","0","0","18","1","624","0","6","avoids","50pct","50pct","0","0","0","0","0","0"
"011417","14:43:42","108","108","4.0.10.0","1","10","categorization_causality","attributeB","0","250","0","0","0","0","18","1","1011","0","2","halts","50pct","50pct","0","0","0","0","0","0"
"011417","14:43:42","108","108","4.0.10.0","1","11","categorization_causality","attributeB","0","250","0","0","0","0","18","1","552","0","4","averts","50pct","50pct","0","0","0","0","0","0"
"011417","14:43:42","108","108","4.0.10.0","1","12","categorization_causality","attributeB","0","250","0","0","0","0","18","1","631","0","1","stops","50pct","50pct","0","0","0","0","0","0"
"011417","14:43:42","108","108","4.0.10.0","1","13","categorization_causality","attributeB","0","250","0","0","0","0","18","0","1926","0","5","precludes","50pct","50pct","0","1","X","75pct","50pct","1366"
"011417","14:43:42","108","108","4.0.10.0","1","14","categorization_causality","attributeA","0","250","0","0","0","0","23","1","791","0","1","leads to","50pct","50pct","1","0","0","0","0","0"
"011417","14:43:42","108","108","4.0.10.0","1","15","categorization_causality","attributeA","0","250","0","0","0","0","23","1","824","0","3","produces","50pct","50pct","1","0","0","0","0","0"
"011417","14:43:42","108","108","4.0.10.0","1","16","categorization_causality","attributeB","0","250","0","0","0","0","18","1","788","0","4","averts","50pct","50pct","0","0","0","0","0","0"
"011417","14:43:42","108","108","4.0.10.0","1","17","categorization_causality","attributeB","0","250","0","0","0","0","18","1","875","0","6","avoids","50pct","50pct","0","0","0","0","0","0"
"011417","14:43:42","108","108","4.0.10.0","1","18","categorization_causality","attributeA","0","250","0","0","0","0","23","1","693","0","8","predicts","50pct","50pct","0","0","0","0","0","0"
"011417","14:43:42","108","108","4.0.10.0","1","19","categorization_causality","attributeB","0","250","0","0","0","0","18","1","684","0","3","ceases","50pct","50pct","0","0","0","0","0","0"
"011417","14:43:42","108","108","4.0.10.0","1","20","categorization_causality","attributeA","0","250","0","0","0","0","23","1","717","0","4","starts","50pct","50pct","0","0","0","0","0","0"
"011417","14:43:42","108","108","4.0.10.0","1","21","categorization_causality","attributeA","0","250","0","0","0","0","23","1","507","0","4","starts","50pct","50pct","0","0","0","0","0","0"
"011417","14:43:42","108","108","4.0.10.0","1","22","categorization_causality","attributeB","0","250","0","0","0","0","18","1","472","0","8","blocks","50pct","50pct","0","0","0","0","0","0"
"011417","14:43:42","108","108","4.0.10.0","1","23","categorization_causality","attributeB","0","250","0","0","0","0","18","0","1075","0","5","precludes","50pct","50pct","0","1","X","75pct","50pct","750"
"011417","14:43:42","108","108","4.0.10.0","1","24","categorization_causality","attributeB","0","250","0","0","0","0","18","1","557","0","1","stops","50pct","50pct","0","0","0","0","0","0"
"011417","14:43:42","108","108","4.0.10.0","1","25","categorization_causality","attributeA","0","250","0","0","0","0","23","1","673","0","3","produces","50pct","50pct","0","0","0","0","0","0"
"011417","14:43:42","108","108","4.0.10.0","1","26","categorization_causality","attributeA","0","250","0","0","0","0","23","1","463","0","6","affects","50pct","50pct","0","0","0","0","0","0"
"011417","14:43:42","108","108","4.0.10.0","1","27","categorization_causality","attributeA","0","250","0","0","0","0","23","1","549","0","8","predicts","50pct","50pct","0","0","0","0","0","0"
"011417","14:43:42","108","108","4.0.10.0","1","28","categorization_causality","attributeA","0","250","0","0","0","0","23","1","463","0","1","leads to","50pct","50pct","0","0","0","0","0","0"
"011417","14:43:42","108","108","4.0.10.0","1","29","categorization_causality","attributeB","0","250","0","0","0","0","18","1","561","0","7","ends","50pct","50pct","0","0","0","0","0","0"
"011417","14:43:42","108","108","4.0.10.0","1","30","categorization_causality","attributeB","0","250","0","0","0","0","18","1","527","0","2","halts","50pct","50pct","0","0","0","0","0","0"
"011417","14:43:42","108","108","4.0.10.0","1","31","categorization_causality","attributeA","0","250","0","0","0","0","23","0","1048","0","5","determines","50pct","50pct","0","1","X","75pct","50pct","566"
"011417","14:43:42","108","108","4.0.10.0","1","32","categorization_causality","attributeB","0","250","0","0","0","0","18","1","749","0","6","avoids","50pct","50pct","0","0","0","0","0","0"
"011417","14:43:42","108","108","4.0.10.0","1","33","categorization_causality","attributeB","0","250","0","0","0","0","18","1","873","0","3","ceases","50pct","50pct","0","0","0","0","0","0"
"011417","14:43:42","108","108","4.0.10.0","1","34","categorization_causality","attributeA","0","250","0","0","0","0","23","1","1028","0","2","results in","50pct","50pct","1","0","0","0","0","0"
"011417","14:43:42","108","108","4.0.10.0","1","35","categorization_causality","attributeA","0","250","0","0","0","0","23","1","698","0","7","influences","50pct","50pct","0","0","0","0","0","0"
"011417","14:43:42","108","108","4.0.10.0","1","36","categorization_causality","attributeA","0","250","0","0","0","0","23","1","645","0","3","produces","50pct","50pct","0","0","0","0","0","0"
"011417","14:43:42","108","108","4.0.10.0","1","37","categorization_causality","attributeA","0","250","0","0","0","0","23","1","711","0","5","determines","50pct","50pct","0","0","0","0","0","0"
"011417","14:43:42","108","108","4.0.10.0","1","38","categorization_causality","attributeA","0","250","0","0","0","0","23","1","486","0","4","starts","50pct","50pct","0","0","0","0","0","0"
"011417","14:43:42","108","108","4.0.10.0","1","39","categorization_causality","attributeA","0","250","0","0","0","0","23","1","590","0","2","results in","50pct","50pct","0","0","0","0","0","0"
"011417","14:43:42","108","108","4.0.10.0","1","40","categorization_causality","attributeB","0","250","0","0","0","0","18","1","568","0","4","averts","50pct","50pct","0","0","0","0","0","0"
"011417","14:43:42","108","108","4.0.10.0","1","41","categorization_causality","attributeA","0","250","0","0","0","0","23","1","737","0","6","affects","50pct","50pct","1","0","0","0","0","0"
"011417","14:43:42","108","108","4.0.10.0","1","42","categorization_causality","attributeA","0","250","0","0","0","0","23","1","509","0","8","predicts","50pct","50pct","0","0","0","0","0","0"
"011417","14:43:42","108","108","4.0.10.0","1","43","categorization_causality","attributeB","0","250","0","0","0","0","18","1","1027","0","5","precludes","50pct","50pct","0","0","0","0","0","0"
"011417","14:43:42","108","108","4.0.10.0","1","44","categorization_causality","attributeB","0","250","0","0","0","0","18","1","568","0","8","blocks","50pct","50pct","0","0","0","0","0","0"
"011417","14:43:42","108","108","4.0.10.0","1","45","categorization_causality","attributeA","0","250","0","0","0","0","23","1","613","0","1","leads to","50pct","50pct","0","0","0","0","0","0"
"011417","14:43:42","108","108","4.0.10.0","1","46","categorization_causality","attributeB","0","250","0","0","0","0","18","1","637","0","2","halts","50pct","50pct","1","0","0","0","0","0"
"011417","14:43:42","108","108","4.0.10.0","1","47","categorization_causality","attributeB","0","250","0","0","0","0","18","1","499","0","1","stops","50pct","50pct","0","0","0","0","0","0"
"011417","14:43:42","108","108","4.0.10.0","1","48","categorization_causality","attributeB","0","250","0","0","0","0","18","1","475","0","7","ends","50pct","50pct","0","0","0","0","0","0"
"011417","14:43:42","108","108","4.0.10.0","1","49","categorization_causality","attributeB","0","250","0","0","0","0","18","1","470","0","6","avoids","50pct","50pct","0","0","0","0","0","0"
"011417","14:43:42","108","108","4.0.10.0","1","50","categorization_causality","attributeA","0","250","0","0","0","0","23","1","587","0","7","influences","50pct","50pct","0","0","0","0","0","0"
"011417","14:43:42","108","108","4.0.10.0","1","51","categorization_causality","attributeA","0","250","0","0","0","0","23","1","547","0","5","determines","50pct","50pct","1","0","0","0","0","0"
"011417","14:43:42","108","108","4.0.10.0","1","52","categorization_causality","attributeB","0","250","0","0","0","0","18","1","584","0","5","precludes","50pct","50pct","1","0","0","0","0","0"
"011417","14:43:42","108","108","4.0.10.0","1","53","categorization_causality","attributeA","0","250","0","0","0","0","23","1","788","0","3","produces","50pct","50pct","0","0","0","0","0","0"
"011417","14:43:42","108","108","4.0.10.0","1","54","categorization_causality","attributeA","0","250","0","0","0","0","23","1","565","0","6","affects","50pct","50pct","0","0","0","0","0","0"
"011417","14:43:42","108","108","4.0.10.0","1","55","categorization_causality","attributeA","0","250","0","0","0","0","23","1","496","0","4","starts","50pct","50pct","0","0","0","0","0","0"
"011417","14:43:42","108","108","4.0.10.0","1","56","categorization_causality","attributeB","0","250","0","0","0","0","18","1","678","0","2","halts","50pct","50pct","0","0","0","0","0","0"
"011417","14:43:42","108","108","4.0.10.0","1","57","categorization_causality","attributeA","0","250","0","0","0","0","23","1","717","0","1","leads to","50pct","50pct","0","0","0","0","0","0"
"011417","14:43:42","108","108","4.0.10.0","1","58","categorization_causality","attributeB","0","250","0","0","0","0","18","1","1003","0","7","ends","50pct","50pct","0","0","0","0","0","0"
"011417","14:43:42","108","108","4.0.10.0","1","59","categorization_causality","attributeB","0","250","0","0","0","0","18","1","825","0","8","blocks","50pct","50pct","1","0","0","0","0","0"
"011417","14:43:42","108","108","4.0.10.0","1","60","categorization_causality","attributeB","0","250","0","0","0","0","18","1","1207","0","3","ceases","50pct","50pct","0","0","0","0","0","0"
"011417","14:43:42","108","108","4.0.10.0","1","61","categorization_causality","attributeB","0","250","0","0","0","0","18","1","764","0","4","averts","50pct","50pct","0","0","0","0","0","0"
"011417","14:43:42","108","108","4.0.10.0","1","62","categorization_causality","attributeA","0","250","0","0","0","0","23","1","907","0","8","predicts","50pct","50pct","0","0","0","0","0","0"
"011417","14:43:42","108","108","4.0.10.0","1","63","categorization_causality","attributeB","0","250","0","0","0","0","18","1","510","0","1","stops","50pct","50pct","0","0","0","0","0","0"
"011417","14:43:42","108","108","4.0.10.0","1","64","categorization_causality","attributeA","0","250","0","0","0","0","23","1","519","0","7","influences","50pct","50pct","0","0","0","0","0","0"
"011417","14:43:42","108","108","4.0.10.0","1","65","categorization_causality","attributeA","0","250","0","0","0","0","23","1","807","0","2","results in","50pct","50pct","0","0","0","0","0","0"
"011417","14:43:42","108","108","4.0.10.0","1","66","categorization_causality","attributeA","0","250","0","0","0","0","23","1","455","0","3","produces","50pct","50pct","1","0","0","0","0","0"
"011417","14:43:42","108","108","4.0.10.0","1","67","categorization_causality","attributeA","0","250","0","0","0","0","23","1","520","0","7","influences","50pct","50pct","0","0","0","0","0","0"
"011417","14:43:42","108","108","4.0.10.0","1","68","categorization_causality","attributeA","0","250","0","0","0","0","23","0","19755","0","6","affects","50pct","50pct","0","1","X","75pct","50pct","3500"
"011417","14:43:42","108","108","4.0.10.0","1","69","categorization_causality","attributeA","0","250","0","0","0","0","23","1","588","0","2","results in","50pct","50pct","0","0","0","0","0","0"
"011417","14:43:42","108","108","4.0.10.0","1","70","categorization_causality","attributeA","0","250","0","0","0","0","23","1","644","0","8","predicts","50pct","50pct","0","0","0","0","0","0"
"011417","14:43:42","108","108","4.0.10.0","1","71","categorization_causality","attributeB","0","250","0","0","0","0","18","0","814","0","3","ceases","50pct","50pct","0","1","X","75pct","50pct","433"
"011417","14:43:42","108","108","4.0.10.0","1","72","categorization_causality","attributeB","0","250","0","0","0","0","18","1","516","0","1","stops","50pct","50pct","0","0","0","0","0","0"
"011417","14:43:42","108","108","4.0.10.0","1","73","categorization_causality","attributeB","0","250","0","0","0","0","18","1","1409","0","5","precludes","50pct","50pct","0","0","0","0","0","0"
"011417","14:43:42","108","108","4.0.10.0","1","74","categorization_causality","attributeA","0","250","0","0","0","0","23","1","747","0","5","determines","50pct","50pct","0","0","0","0","0","0"
"011417","14:43:42","108","108","4.0.10.0","1","75","categorization_causality","attributeB","0","250","0","0","0","0","18","1","756","0","2","halts","50pct","50pct","0","0","0","0","0","0"
"011417","14:43:42","108","108","4.0.10.0","1","76","categorization_causality","attributeA","0","250","0","0","0","0","23","1","532","0","4","starts","50pct","50pct","0","0","0","0","0","0"
"011417","14:43:42","108","108","4.0.10.0","1","77","categorization_causality","attributeB","0","250","0","0","0","0","18","1","654","0","4","averts","50pct","50pct","0","0","0","0","0","0"
"011417","14:43:42","108","108","4.0.10.0","1","78","categorization_causality","attributeB","0","250","0","0","0","0","18","1","523","0","6","avoids","50pct","50pct","0","0","0","0","0","0"
"011417","14:43:42","108","108","4.0.10.0","1","79","categorization_causality","attributeB","0","250","0","0","0","0","18","1","494","0","7","ends","50pct","50pct","0","0","0","0","0","0"
"011417","14:43:42","108","108","4.0.10.0","1","80","categorization_causality","attributeA","0","250","0","0","0","0","23","1","623","0","1","leads to","50pct","50pct","0","0","0","0","0","0"
"011417","14:43:42","108","108","4.0.10.0","1","81","categorization_causality","attributeB","0","250","0","0","0","0","18","1","590","0","8","blocks","50pct","50pct","1","0","0","0","0","0"
"011417","14:43:42","108","108","4.0.10.0","2","2","categorization_causality","attributeA","0","250","0","0","0","0","23","1","1078","0","1","leads to","50pct","50pct","1","0","0","0","0","0"
"011417","14:43:42","108","108","4.0.10.0","2","3","categorization_causality","attributeA","0","250","0","0","0","0","23","1","423","0","6","affects","50pct","50pct","0","0","0","0","0","0"
"011417","14:43:42","108","108","4.0.10.0","2","4","categorization_causality","attributeB","0","250","0","0","0","0","18","1","563","0","5","precludes","50pct","50pct","0","0","0","0","0","0"
"011417","14:43:42","108","108","4.0.10.0","2","5","categorization_causality","attributeB","0","250","0","0","0","0","18","1","478","0","1","stops","50pct","50pct","0","0","0","0","0","0"
"011417","14:43:42","108","108","4.0.10.0","2","6","categorization_causality","attributeA","0","250","0","0","0","0","23","1","648","0","3","produces","50pct","50pct","0","0","0","0","0","0"
"011417","14:43:42","108","108","4.0.10.0","2","7","categorization_causality","attributeA","0","250","0","0","0","0","23","1","838","0","2","results in","50pct","50pct","0","0","0","0","0","0"
"011417","14:43:42","108","108","4.0.10.0","2","8","categorization_causality","attributeB","0","250","0","0","0","0","18","1","442","0","7","ends","50pct","50pct","0","0","0","0","0","0"
"011417","14:43:42","108","108","4.0.10.0","2","9","categorization_causality","attributeB","0","250","0","0","0","0","18","1","403","0","8","blocks","50pct","50pct","0","0","0","0","0","0"
"011417","14:43:42","108","108","4.0.10.0","2","10","categorization_causality","attributeB","0","250","0","0","0","0","18","1","476","0","4","averts","50pct","50pct","0","0","0","0","0","0"
"011417","14:43:42","108","108","4.0.10.0","2","11","categorization_causality","attributeA","0","250","0","0","0","0","23","0","771","0","7","influences","50pct","50pct","0","1","X","75pct","50pct","516"
"011417","14:43:42","108","108","4.0.10.0","2","12","categorization_causality","attributeB","0","250","0","0","0","0","18","1","556","0","6","avoids","50pct","50pct","0","0","0","0","0","0"
"011417","14:43:42","108","108","4.0.10.0","2","13","categorization_causality","attributeB","0","250","0","0","0","0","18","1","660","0","3","ceases","50pct","50pct","0","0","0","0","0","0"
"011417","14:43:42","108","108","4.0.10.0","2","14","categorization_causality","attributeA","0","250","0","0","0","0","23","0","758","0","5","determines","50pct","50pct","0","1","X","75pct","50pct","466"
"011417","14:43:42","108","108","4.0.10.0","2","15","categorization_causality","attributeA","0","250","0","0","0","0","23","1","548","0","8","predicts","50pct","50pct","0","0","0","0","0","0"
"011417","14:43:42","108","108","4.0.10.0","2","16","categorization_causality","attributeA","0","250","0","0","0","0","23","1","444","0","4","starts","50pct","50pct","0","0","0","0","0","0"
"011417","14:43:42","108","108","4.0.10.0","2","17","categorization_causality","attributeB","0","250","0","0","0","0","18","1","775","0","2","halts","50pct","50pct","0","0","0","0","0","0"
"011417","14:43:42","108","108","4.0.10.0","2","18","categorization_causality","attributeA","0","250","0","0","0","0","23","1","566","0","6","affects","50pct","50pct","0","0","0","0","0","0"
"011417","14:43:42","108","108","4.0.10.0","2","19","categorization_causality","attributeB","0","250","0","0","0","0","18","1","572","0","2","halts","50pct","50pct","0","0","0","0","0","0"
"011417","14:43:42","108","108","4.0.10.0","2","20","categorization_causality","attributeA","0","250","0","0","0","0","23","1","822","0","8","predicts","50pct","50pct","1","0","0","0","0","0"
"011417","14:43:42","108","108","4.0.10.0","2","21","categorization_causality","attributeB","0","250","0","0","0","0","18","1","590","0","7","ends","50pct","50pct","0","0","0","0","0","0"
"011417","14:43:42","108","108","4.0.10.0","2","22","categorization_causality","attributeB","0","250","0","0","0","0","18","1","656","0","4","averts","50pct","50pct","0","0","0","0","0","0"
"011417","14:43:42","108","108","4.0.10.0","2","23","categorization_causality","attributeB","0","250","0","0","0","0","18","0","834","0","5","precludes","50pct","50pct","0","1","X","75pct","50pct","583"
"011417","14:43:42","108","108","4.0.10.0","2","24","categorization_causality","attributeB","0","250","0","0","0","0","18","1","783","0","8","blocks","50pct","50pct","0","0","0","0","0","0"
"011417","14:43:42","108","108","4.0.10.0","2","25","categorization_causality","attributeA","0","250","0","0","0","0","23","1","597","0","5","determines","50pct","50pct","0","0","0","0","0","0"
"011417","14:43:42","108","108","4.0.10.0","2","26","categorization_causality","attributeB","0","250","0","0","0","0","18","1","534","0","1","stops","50pct","50pct","0","0","0","0","0","0"
"011417","14:43:42","108","108","4.0.10.0","2","27","categorization_causality","attributeA","0","250","0","0","0","0","23","1","448","0","1","leads to","50pct","50pct","0","0","0","0","0","0"
"011417","14:43:42","108","108","4.0.10.0","2","28","categorization_causality","attributeA","0","250","0","0","0","0","23","1","488","0","4","starts","50pct","50pct","1","0","0","0","0","0"
"011417","14:43:42","108","108","4.0.10.0","2","29","categorization_causality","attributeB","0","250","0","0","0","0","18","1","704","0","3","ceases","50pct","50pct","0","0","0","0","0","0"
"011417","14:43:42","108","108","4.0.10.0","2","30","categorization_causality","attributeA","0","250","0","0","0","0","23","1","737","0","7","influences","50pct","50pct","0","0","0","0","0","0"
"011417","14:43:42","108","108","4.0.10.0","2","31","categorization_causality","attributeB","0","250","0","0","0","0","18","1","1118","0","6","avoids","50pct","50pct","0","0","0","0","0","0"
"011417","14:43:42","108","108","4.0.10.0","2","32","categorization_causality","attributeA","0","250","0","0","0","0","23","1","636","0","2","results in","50pct","50pct","0","0","0","0","0","0"
"011417","14:43:42","108","108","4.0.10.0","2","33","categorization_causality","attributeB","0","250","0","0","0","0","18","1","1133","0","8","blocks","50pct","50pct","0","0","0","0","0","0"
"011417","14:43:42","108","108","4.0.10.0","2","34","categorization_causality","attributeB","0","250","0","0","0","0","18","1","709","0","2","halts","50pct","50pct","0","0","0","0","0","0"
"011417","14:43:42","108","108","4.0.10.0","2","35","categorization_causality","attributeB","0","250","0","0","0","0","18","1","563","0","6","avoids","50pct","50pct","0","0","0","0","0","0"
"011417","14:43:42","108","108","4.0.10.0","2","36","categorization_causality","attributeB","0","250","0","0","0","0","18","1","522","0","4","averts","50pct","50pct","0","0","0","0","0","0"
"011417","14:43:42","108","108","4.0.10.0","2","37","categorization_causality","attributeA","0","250","0","0","0","0","23","1","594","0","3","produces","50pct","50pct","0","0","0","0","0","0"
"011417","14:43:42","108","108","4.0.10.0","2","38","categorization_causality","attributeB","0","250","0","0","0","0","18","1","488","0","1","stops","50pct","50pct","0","0","0","0","0","0"
"011417","14:43:42","108","108","4.0.10.0","2","39","categorization_causality","attributeA","0","250","0","0","0","0","23","1","580","0","7","influences","50pct","50pct","0","0","0","0","0","0"
"011417","14:43:42","108","108","4.0.10.0","2","40","categorization_causality","attributeB","0","250","0","0","0","0","18","1","638","0","7","ends","50pct","50pct","0","0","0","0","0","0"
"011417","14:43:42","108","108","4.0.10.0","2","41","categorization_causality","attributeB","0","250","0","0","0","0","18","1","1141","0","5","precludes","50pct","50pct","1","0","0","0","0","0"
"011417","14:43:42","108","108","4.0.10.0","2","42","categorization_causality","attributeA","0","250","0","0","0","0","23","0","708","0","8","predicts","50pct","50pct","0","1","X","75pct","50pct","433"
"011417","14:43:42","108","108","4.0.10.0","2","43","categorization_causality","attributeB","0","250","0","0","0","0","18","1","552","0","3","ceases","50pct","50pct","0","0","0","0","0","0"
"011417","14:43:42","108","108","4.0.10.0","2","44","categorization_causality","attributeA","0","250","0","0","0","0","23","1","594","0","5","determines","50pct","50pct","0","0","0","0","0","0"
"011417","14:43:42","108","108","4.0.10.0","2","45","categorization_causality","attributeA","0","250","0","0","0","0","23","1","686","0","2","results in","50pct","50pct","0","0","0","0","0","0"
"011417","14:43:42","108","108","4.0.10.0","2","46","categorization_causality","attributeA","0","250","0","0","0","0","23","1","517","0","4","starts","50pct","50pct","0","0","0","0","0","0"
"011417","14:43:42","108","108","4.0.10.0","2","47","categorization_causality","attributeB","0","250","0","0","0","0","18","1","569","0","3","ceases","50pct","50pct","0","0","0","0","0","0"
"011417","14:43:42","108","108","4.0.10.0","2","48","categorization_causality","attributeB","0","250","0","0","0","0","18","1","976","0","6","avoids","50pct","50pct","0","0","0","0","0","0"
"011417","14:43:42","108","108","4.0.10.0","2","49","categorization_causality","attributeA","0","250","0","0","0","0","23","1","551","0","3","produces","50pct","50pct","0","0","0","0","0","0"
"011417","14:43:42","108","108","4.0.10.0","2","50","categorization_causality","attributeB","0","250","0","0","0","0","18","1","655","0","7","ends","50pct","50pct","0","0","0","0","0","0"
"011417","14:43:42","108","108","4.0.10.0","2","51","categorization_causality","attributeB","0","250","0","0","0","0","18","1","738","0","1","stops","50pct","50pct","1","0","0","0","0","0"
"011417","14:43:42","108","108","4.0.10.0","2","52","categorization_causality","attributeA","0","250","0","0","0","0","23","1","507","0","6","affects","50pct","50pct","0","0","0","0","0","0"
"011417","14:43:42","108","108","4.0.10.0","2","53","categorization_causality","attributeA","0","250","0","0","0","0","23","1","504","0","1","leads to","50pct","50pct","0","0","0","0","0","0"
"011417","14:43:42","108","108","4.0.10.0","2","54","categorization_causality","attributeA","0","250","0","0","0","0","23","1","573","0","8","predicts","50pct","50pct","0","0","0","0","0","0"
"011417","14:43:42","108","108","4.0.10.0","2","55","categorization_causality","attributeB","0","250","0","0","0","0","18","1","490","0","8","blocks","50pct","50pct","0","0","0","0","0","0"
"011417","14:43:42","108","108","4.0.10.0","2","56","categorization_causality","attributeA","0","250","0","0","0","0","23","1","574","0","7","influences","50pct","50pct","0","0","0","0","0","0"
"011417","14:43:42","108","108","4.0.10.0","2","57","categorization_causality","attributeA","0","250","0","0","0","0","23","1","493","0","4","starts","50pct","50pct","0","0","0","0","0","0"
"011417","14:43:42","108","108","4.0.10.0","2","58","categorization_causality","attributeA","0","250","0","0","0","0","23","1","526","0","5","determines","50pct","50pct","0","0","0","0","0","0"
"011417","14:43:42","108","108","4.0.10.0","2","59","categorization_causality","attributeB","0","250","0","0","0","0","18","1","776","0","4","averts","50pct","50pct","0","0","0","0","0","0"
"011417","14:43:42","108","108","4.0.10.0","2","60","categorization_causality","attributeB","0","250","0","0","0","0","18","1","1229","0","5","precludes","50pct","50pct","0","0","0","0","0","0"
"011417","14:43:42","108","108","4.0.10.0","2","61","categorization_causality","attributeA","0","250","0","0","0","0","23","1","534","0","3","produces","50pct","50pct","0","0","0","0","0","0"
"011417","14:43:42","108","108","4.0.10.0","2","62","categorization_causality","attributeA","0","250","0","0","0","0","23","1","482","0","2","results in","50pct","50pct","0","0","0","0","0","0"
"011417","14:43:42","108","108","4.0.10.0","2","63","categorization_causality","attributeB","0","250","0","0","0","0","18","1","1032","0","2","halts","50pct","50pct","0","0","0","0","0","0"
"011417","14:43:42","108","108","4.0.10.0","2","64","categorization_causality","attributeB","0","250","0","0","0","0","18","1","980","0","6","avoids","50pct","50pct","0","0","0","0","0","0"
"011417","14:43:42","108","108","4.0.10.0","2","65","categorization_causality","attributeB","0","250","0","0","0","0","18","1","872","0","1","stops","50pct","50pct","0","0","0","0","0","0"
"011417","14:43:42","108","108","4.0.10.0","2","66","categorization_causality","attributeB","0","250","0","0","0","0","18","1","1202","0","7","ends","50pct","50pct","0","0","0","0","0","0"
"011417","14:43:42","108","108","4.0.10.0","2","67","categorization_causality","attributeA","0","250","0","0","0","0","23","1","535","0","1","leads to","50pct","50pct","1","0","0","0","0","0"
"011417","14:43:42","108","108","4.0.10.0","2","68","categorization_causality","attributeA","0","250","0","0","0","0","23","1","803","0","6","affects","50pct","50pct","0","0","0","0","0","0"
"011417","14:43:42","108","108","4.0.10.0","2","69","categorization_causality","attributeB","0","250","0","0","0","0","18","1","595","0","3","ceases","50pct","50pct","1","0","0","0","0","0"
"011417","14:43:42","108","108","4.0.10.0","2","70","categorization_causality","attributeA","0","250","0","0","0","0","23","1","613","0","4","starts","50pct","50pct","0","0","0","0","0","0"
"011417","14:43:42","108","108","4.0.10.0","2","71","categorization_causality","attributeA","0","250","0","0","0","0","23","1","504","0","5","determines","50pct","50pct","0","0","0","0","0","0"
"011417","14:43:42","108","108","4.0.10.0","2","72","categorization_causality","attributeA","0","250","0","0","0","0","23","1","624","0","6","affects","50pct","50pct","1","0","0","0","0","0"
"011417","14:43:42","108","108","4.0.10.0","2","73","categorization_causality","attributeB","0","250","0","0","0","0","18","1","509","0","8","blocks","50pct","50pct","0","0","0","0","0","0"
"011417","14:43:42","108","108","4.0.10.0","2","74","categorization_causality","attributeA","0","250","0","0","0","0","23","1","543","0","3","produces","50pct","50pct","1","0","0","0","0","0"
"011417","14:43:42","108","108","4.0.10.0","2","75","categorization_causality","attributeA","0","250","0","0","0","0","23","1","724","0","8","predicts","50pct","50pct","0","0","0","0","0","0"
"011417","14:43:42","108","108","4.0.10.0","2","76","categorization_causality","attributeA","0","250","0","0","0","0","23","1","553","0","2","results in","50pct","50pct","0","0","0","0","0","0"
"011417","14:43:42","108","108","4.0.10.0","2","77","categorization_causality","attributeB","0","250","0","0","0","0","18","1","769","0","5","precludes","50pct","50pct","0","0","0","0","0","0"
"011417","14:43:42","108","108","4.0.10.0","2","78","categorization_causality","attributeB","0","250","0","0","0","0","18","1","804","0","4","averts","50pct","50pct","0","0","0","0","0","0"
"011417","14:43:42","108","108","4.0.10.0","2","79","categorization_causality","attributeB","0","250","0","0","0","0","18","1","635","0","2","halts","50pct","50pct","1","0","0","0","0","0"
"011417","14:43:42","108","108","4.0.10.0","2","80","categorization_causality","attributeA","0","250","0","0","0","0","23","1","577","0","7","influences","50pct","50pct","0","0","0","0","0","0"
"011417","14:43:42","108","108","4.0.10.0","2","81","categorization_causality","attributeA","0","250","0","0","0","0","23","1","588","0","1","leads to","50pct","50pct","0","0","0","0","0","0"
"011417","14:43:42","108","108","4.0.10.0","3","2","categorization_causality","attributeA","0","250","0","0","0","0","23","1","590","0","4","starts","50pct","50pct","0","0","0","0","0","0"
"011417","14:43:42","108","108","4.0.10.0","3","3","categorization_causality","attributeA","0","250","0","0","0","0","23","1","599","0","2","results in","50pct","50pct","0","0","0","0","0","0"
"011417","14:43:42","108","108","4.0.10.0","3","4","categorization_causality","attributeB","0","250","0","0","0","0","18","1","523","0","1","stops","50pct","50pct","0","0","0","0","0","0"
"011417","14:43:42","108","108","4.0.10.0","3","5","categorization_causality","attributeA","0","250","0","0","0","0","23","1","782","0","6","affects","50pct","50pct","0","0","0","0","0","0"
"011417","14:43:42","108","108","4.0.10.0","3","6","categorization_causality","attributeA","0","250","0","0","0","0","23","1","615","0","5","determines","50pct","50pct","1","0","0","0","0","0"
"011417","14:43:42","108","108","4.0.10.0","3","7","categorization_causality","attributeA","0","250","0","0","0","0","23","1","530","0","1","leads to","50pct","50pct","0","0","0","0","0","0"
"011417","14:43:42","108","108","4.0.10.0","3","8","categorization_causality","attributeB","0","250","0","0","0","0","18","1","527","0","5","precludes","50pct","50pct","0","0","0","0","0","0"
"011417","14:43:42","108","108","4.0.10.0","3","9","categorization_causality","attributeA","0","250","0","0","0","0","23","1","565","0","3","produces","50pct","50pct","0","0","0","0","0","0"
"011417","14:43:42","108","108","4.0.10.0","3","10","categorization_causality","attributeB","0","250","0","0","0","0","18","1","531","0","2","halts","50pct","50pct","0","0","0","0","0","0"
"011417","14:43:42","108","108","4.0.10.0","3","11","categorization_causality","attributeB","0","250","0","0","0","0","18","1","425","0","7","ends","50pct","50pct","0","0","0","0","0","0"
"011417","14:43:42","108","108","4.0.10.0","3","12","categorization_causality","attributeA","0","250","0","0","0","0","23","1","525","0","8","predicts","50pct","50pct","0","0","0","0","0","0"
"011417","14:43:42","108","108","4.0.10.0","3","13","categorization_causality","attributeA","0","250","0","0","0","0","23","1","760","0","7","influences","50pct","50pct","1","0","0","0","0","0"
"011417","14:43:42","108","108","4.0.10.0","3","14","categorization_causality","attributeA","0","250","0","0","0","0","23","1","510","0","3","produces","50pct","50pct","0","0","0","0","0","0"
"011417","14:43:42","108","108","4.0.10.0","3","15","categorization_causality","attributeA","0","250","0","0","0","0","23","1","465","0","1","leads to","50pct","50pct","0","0","0","0","0","0"
"011417","14:43:42","108","108","4.0.10.0","3","16","categorization_causality","attributeA","0","250","0","0","0","0","23","1","421","0","8","predicts","50pct","50pct","1","0","0","0","0","0"
"011417","14:43:42","108","108","4.0.10.0","3","17","categorization_causality","attributeA","0","250","0","0","0","0","23","1","680","0","5","determines","50pct","50pct","0","0","0","0","0","0"
"011417","14:43:42","108","108","4.0.10.0","3","18","categorization_causality","attributeB","0","250","0","0","0","0","18","1","547","0","6","avoids","50pct","50pct","1","0","0","0","0","0"
"011417","14:43:42","108","108","4.0.10.0","3","19","categorization_causality","attributeA","0","250","0","0","0","0","23","1","994","0","6","affects","50pct","50pct","0","0","0","0","0","0"
"011417","14:43:42","108","108","4.0.10.0","3","20","categorization_causality","attributeB","0","250","0","0","0","0","18","1","609","0","4","averts","50pct","50pct","0","0","0","0","0","0"
"011417","14:43:42","108","108","4.0.10.0","3","21","categorization_causality","attributeA","0","250","0","0","0","0","23","1","523","0","2","results in","50pct","50pct","0","0","0","0","0","0"
"011417","14:43:42","108","108","4.0.10.0","3","22","categorization_causality","attributeB","0","250","0","0","0","0","18","1","536","0","3","ceases","50pct","50pct","0","0","0","0","0","0"
"011417","14:43:42","108","108","4.0.10.0","3","23","categorization_causality","attributeB","0","250","0","0","0","0","18","1","758","0","8","blocks","50pct","50pct","0","0","0","0","0","0"
"011417","14:43:42","108","108","4.0.10.0","3","24","categorization_causality","attributeB","0","250","0","0","0","0","18","1","521","0","8","blocks","50pct","50pct","0","0","0","0","0","0"
"011417","14:43:42","108","108","4.0.10.0","3","25","categorization_causality","attributeA","0","250","0","0","0","0","23","1","536","0","4","starts","50pct","50pct","1","0","0","0","0","0"
"011417","14:43:42","108","108","4.0.10.0","3","26","categorization_causality","attributeA","0","250","0","0","0","0","23","1","822","0","7","influences","50pct","50pct","0","0","0","0","0","0"
"011417","14:43:42","108","108","4.0.10.0","3","27","categorization_causality","attributeA","0","250","0","0","0","0","23","1","534","0","8","predicts","50pct","50pct","0","0","0","0","0","0"
"011417","14:43:42","108","108","4.0.10.0","3","28","categorization_causality","attributeB","0","250","0","0","0","0","18","1","647","0","3","ceases","50pct","50pct","0","0","0","0","0","0"
"011417","14:43:42","108","108","4.0.10.0","3","29","categorization_causality","attributeB","0","250","0","0","0","0","18","1","440","0","2","halts","50pct","50pct","0","0","0","0","0","0"
"011417","14:43:42","108","108","4.0.10.0","3","30","categorization_causality","attributeB","0","250","0","0","0","0","18","0","835","0","5","precludes","50pct","50pct","0","1","X","75pct","50pct","483"
"011417","14:43:42","108","108","4.0.10.0","3","31","categorization_causality","attributeB","0","250","0","0","0","0","18","1","536","0","4","averts","50pct","50pct","0","0","0","0","0","0"
"011417","14:43:42","108","108","4.0.10.0","3","32","categorization_causality","attributeA","0","250","0","0","0","0","23","0","1179","0","7","influences","50pct","50pct","0","1","X","75pct","50pct","633"
"011417","14:43:42","108","108","4.0.10.0","3","33","categorization_causality","attributeA","0","250","0","0","0","0","23","1","782","0","3","produces","50pct","50pct","0","0","0","0","0","0"
"011417","14:43:42","108","108","4.0.10.0","3","34","categorization_causality","attributeA","0","250","0","0","0","0","23","1","743","0","6","affects","50pct","50pct","0","0","0","0","0","0"
"011417","14:43:42","108","108","4.0.10.0","3","35","categorization_causality","attributeA","0","250","0","0","0","0","23","1","590","0","5","determines","50pct","50pct","0","0","0","0","0","0"
"011417","14:43:42","108","108","4.0.10.0","3","36","categorization_causality","attributeA","0","250","0","0","0","0","23","1","1101","0","2","results in","50pct","50pct","0","0","0","0","0","0"
"011417","14:43:42","108","108","4.0.10.0","3","37","categorization_causality","attributeA","0","250","0","0","0","0","23","1","541","0","1","leads to","50pct","50pct","0","0","0","0","0","0"
"011417","14:43:42","108","108","4.0.10.0","3","38","categorization_causality","attributeB","0","250","0","0","0","0","18","0","1098","0","6","avoids","50pct","50pct","0","1","X","75pct","50pct","600"
"011417","14:43:42","108","108","4.0.10.0","3","39","categorization_causality","attributeA","0","250","0","0","0","0","23","1","447","0","4","starts","50pct","50pct","1","0","0","0","0","0"
"011417","14:43:42","108","108","4.0.10.0","3","40","categorization_causality","attributeB","0","250","0","0","0","0","18","1","507","0","1","stops","50pct","50pct","0","0","0","0","0","0"
"011417","14:43:42","108","108","4.0.10.0","3","41","categorization_causality","attributeA","0","250","0","0","0","0","23","1","590","0","1","leads to","50pct","50pct","0","0","0","0","0","0"
"011417","14:43:42","108","108","4.0.10.0","3","42","categorization_causality","attributeB","0","250","0","0","0","0","18","1","431","0","7","ends","50pct","50pct","0","0","0","0","0","0"
"011417","14:43:42","108","108","4.0.10.0","3","43","categorization_causality","attributeB","0","250","0","0","0","0","18","1","398","0","7","ends","50pct","50pct","0","0","0","0","0","0"
"011417","14:43:42","108","108","4.0.10.0","3","44","categorization_causality","attributeA","0","250","0","0","0","0","23","1","534","0","8","predicts","50pct","50pct","0","0","0","0","0","0"
"011417","14:43:42","108","108","4.0.10.0","3","45","categorization_causality","attributeB","0","250","0","0","0","0","18","1","518","0","1","stops","50pct","50pct","0","0","0","0","0","0"
"011417","14:43:42","108","108","4.0.10.0","3","46","categorization_causality","attributeB","0","250","0","0","0","0","18","1","512","0","2","halts","50pct","50pct","0","0","0","0","0","0"
"011417","14:43:42","108","108","4.0.10.0","3","47","categorization_causality","attributeB","0","250","0","0","0","0","18","1","546","0","8","blocks","50pct","50pct","0","0","0","0","0","0"
"011417","14:43:42","108","108","4.0.10.0","3","48","categorization_causality","attributeB","0","250","0","0","0","0","18","1","529","0","4","averts","50pct","50pct","0","0","0","0","0","0"
"011417","14:43:42","108","108","4.0.10.0","3","49","categorization_causality","attributeB","0","250","0","0","0","0","18","1","592","0","3","ceases","50pct","50pct","0","0","0","0","0","0"
"011417","14:43:42","108","108","4.0.10.0","3","50","categorization_causality","attributeB","0","250","0","0","0","0","18","1","541","0","6","avoids","50pct","50pct","0","0","0","0","0","0"
"011417","14:43:42","108","108","4.0.10.0","3","51","categorization_causality","attributeA","0","250","0","0","0","0","23","1","677","0","4","starts","50pct","50pct","0","0","0","0","0","0"
"011417","14:43:42","108","108","4.0.10.0","3","52","categorization_causality","attributeB","0","250","0","0","0","0","18","0","925","0","5","precludes","50pct","50pct","0","1","X","75pct","50pct","566"
"011417","14:43:42","108","108","4.0.10.0","3","53","categorization_causality","attributeB","0","250","0","0","0","0","18","1","552","0","7","ends","50pct","50pct","0","0","0","0","0","0"
"011417","14:43:42","108","108","4.0.10.0","3","54","categorization_causality","attributeB","0","250","0","0","0","0","18","1","545","0","2","halts","50pct","50pct","0","0","0","0","0","0"
"011417","14:43:42","108","108","4.0.10.0","3","55","categorization_causality","attributeA","0","250","0","0","0","0","23","1","615","0","3","produces","50pct","50pct","1","0","0","0","0","0"
"011417","14:43:42","108","108","4.0.10.0","3","56","categorization_causality","attributeB","0","250","0","0","0","0","18","1","486","0","1","stops","50pct","50pct","0","0","0","0","0","0"
"011417","14:43:42","108","108","4.0.10.0","3","57","categorization_causality","attributeB","0","250","0","0","0","0","18","1","603","0","3","ceases","50pct","50pct","0","0","0","0","0","0"
"011417","14:43:42","108","108","4.0.10.0","3","58","categorization_causality","attributeA","0","250","0","0","0","0","23","1","979","0","7","influences","50pct","50pct","0","0","0","0","0","0"
"011417","14:43:42","108","108","4.0.10.0","3","59","categorization_causality","attributeB","0","250","0","0","0","0","18","1","599","0","8","blocks","50pct","50pct","0","0","0","0","0","0"
"011417","14:43:42","108","108","4.0.10.0","3","60","categorization_causality","attributeB","0","250","0","0","0","0","18","1","596","0","6","avoids","50pct","50pct","0","0","0","0","0","0"
"011417","14:43:42","108","108","4.0.10.0","3","61","categorization_causality","attributeB","0","250","0","0","0","0","18","1","1185","0","4","averts","50pct","50pct","0","0","0","0","0","0"
"011417","14:43:42","108","108","4.0.10.0","3","62","categorization_causality","attributeA","0","250","0","0","0","0","23","1","524","0","5","determines","50pct","50pct","0","0","0","0","0","0"
"011417","14:43:42","108","108","4.0.10.0","3","63","categorization_causality","attributeB","0","250","0","0","0","0","18","1","730","0","5","precludes","50pct","50pct","1","0","0","0","0","0"
"011417","14:43:42","108","108","4.0.10.0","3","64","categorization_causality","attributeA","0","250","0","0","0","0","23","1","615","0","2","results in","50pct","50pct","0","0","0","0","0","0"
"011417","14:43:42","108","108","4.0.10.0","3","65","categorization_causality","attributeA","0","250","0","0","0","0","23","1","443","0","6","affects","50pct","50pct","0","0","0","0","0","0"
"011417","14:43:42","108","108","4.0.10.0","3","66","categorization_causality","attributeB","0","250","0","0","0","0","18","1","591","0","8","blocks","50pct","50pct","0","0","0","0","0","0"
"011417","14:43:42","108","108","4.0.10.0","3","67","categorization_causality","attributeA","0","250","0","0","0","0","23","1","581","0","4","starts","50pct","50pct","0","0","0","0","0","0"
"011417","14:43:42","108","108","4.0.10.0","3","68","categorization_causality","attributeB","0","250","0","0","0","0","18","1","607","0","2","halts","50pct","50pct","0","0","0","0","0","0"
"011417","14:43:42","108","108","4.0.10.0","3","69","categorization_causality","attributeB","0","250","0","0","0","0","18","1","728","0","5","precludes","50pct","50pct","0","0","0","0","0","0"
"011417","14:43:42","108","108","4.0.10.0","3","70","categorization_causality","attributeA","0","250","0","0","0","0","23","1","703","0","1","leads to","50pct","50pct","1","0","0","0","0","0"
"011417","14:43:42","108","108","4.0.10.0","3","71","categorization_causality","attributeB","0","250","0","0","0","0","18","1","826","0","3","ceases","50pct","50pct","0","0","0","0","0","0"
"011417","14:43:42","108","108","4.0.10.0","3","72","categorization_causality","attributeA","0","250","0","0","0","0","23","1","1306","0","7","influences","50pct","50pct","0","0","0","0","0","0"
"011417","14:43:42","108","108","4.0.10.0","3","73","categorization_causality","attributeA","0","250","0","0","0","0","23","1","443","0","2","results in","50pct","50pct","0","0","0","0","0","0"
"011417","14:43:42","108","108","4.0.10.0","3","74","categorization_causality","attributeB","0","250","0","0","0","0","18","1","572","0","6","avoids","50pct","50pct","0","0","0","0","0","0"
"011417","14:43:42","108","108","4.0.10.0","3","75","categorization_causality","attributeA","0","250","0","0","0","0","23","1","637","0","3","produces","50pct","50pct","0","0","0","0","0","0"
"011417","14:43:42","108","108","4.0.10.0","3","76","categorization_causality","attributeB","0","250","0","0","0","0","18","1","585","0","7","ends","50pct","50pct","1","0","0","0","0","0"
"011417","14:43:42","108","108","4.0.10.0","3","77","categorization_causality","attributeA","0","250","0","0","0","0","23","1","749","0","5","determines","50pct","50pct","0","0","0","0","0","0"
"011417","14:43:42","108","108","4.0.10.0","3","78","categorization_causality","attributeB","0","250","0","0","0","0","18","1","640","0","1","stops","50pct","50pct","0","0","0","0","0","0"
"011417","14:43:42","108","108","4.0.10.0","3","79","categorization_causality","attributeB","0","250","0","0","0","0","18","1","773","0","4","averts","50pct","50pct","0","0","0","0","0","0"
"011417","14:43:42","108","108","4.0.10.0","3","80","categorization_causality","attributeA","0","250","0","0","0","0","23","1","861","0","8","predicts","50pct","50pct","0","0","0","0","0","0"
"011417","14:43:42","108","108","4.0.10.0","3","81","categorization_causality","attributeA","0","250","0","0","0","0","23","1","1103","0","6","affects","50pct","50pct","0","0","0","0","0","0"
"011317","16:26:18","105","105","4.0.10.0","1","2","categorization_causality","attributeA","0","250","0","0","0","0","23","1","2687","0","7","influences","50pct","50pct","-13","0","0","0","0","0"
"011317","16:26:18","105","105","4.0.10.0","1","3","categorization_causality","attributeB","0","250","0","0","0","0","18","1","915","0","8","blocks","50pct","50pct","-15","0","0","0","0","0"
"011317","16:26:18","105","105","4.0.10.0","1","4","categorization_causality","attributeB","0","250","0","0","0","0","18","1","1006","0","2","halts","50pct","50pct","-15","0","0","0","0","0"
"011317","16:26:18","105","105","4.0.10.0","1","5","categorization_causality","attributeB","0","250","0","0","0","0","18","1","967","0","3","ceases","50pct","50pct","-14","0","0","0","0","0"
"011317","16:26:18","105","105","4.0.10.0","1","6","categorization_causality","attributeB","0","250","0","0","0","0","18","1","926","0","6","avoids","50pct","50pct","-15","0","0","0","0","0"
"011317","16:26:18","105","105","4.0.10.0","1","7","categorization_causality","attributeA","0","250","0","0","0","0","23","1","867","0","4","starts","50pct","50pct","-14","0","0","0","0","0"
"011317","16:26:18","105","105","4.0.10.0","1","8","categorization_causality","attributeB","0","250","0","0","0","0","18","1","2182","0","5","precludes","50pct","50pct","-15","0","0","0","0","0"
"011317","16:26:18","105","105","4.0.10.0","1","9","categorization_causality","attributeB","0","250","0","0","0","0","18","1","1056","0","4","averts","50pct","50pct","-14","0","0","0","0","0"
"011317","16:26:18","105","105","4.0.10.0","1","10","categorization_causality","attributeB","0","250","0","0","0","0","18","1","772","0","1","stops","50pct","50pct","-14","0","0","0","0","0"
"011317","16:26:18","105","105","4.0.10.0","1","11","categorization_causality","attributeA","0","250","0","0","0","0","23","1","694","0","5","determines","50pct","50pct","-14","0","0","0","0","0"
"011317","16:26:18","105","105","4.0.10.0","1","12","categorization_causality","attributeB","0","250","0","0","0","0","18","1","1475","0","7","ends","50pct","50pct","-14","0","0","0","0","0"
"011317","16:26:18","105","105","4.0.10.0","1","13","categorization_causality","attributeB","0","250","0","0","0","0","18","1","821","0","3","ceases","50pct","50pct","-15","0","0","0","0","0"
"011317","16:26:18","105","105","4.0.10.0","1","14","categorization_causality","attributeA","0","250","0","0","0","0","23","1","1012","0","3","produces","50pct","50pct","-14","0","0","0","0","0"
"011317","16:26:18","105","105","4.0.10.0","1","15","categorization_causality","attributeB","0","250","0","0","0","0","18","1","1250","0","2","halts","50pct","50pct","-14","0","0","0","0","0"
"011317","16:26:18","105","105","4.0.10.0","1","16","categorization_causality","attributeA","0","250","0","0","0","0","23","1","1079","0","1","leads to","50pct","50pct","-14","0","0","0","0","0"
"011317","16:26:18","105","105","4.0.10.0","1","17","categorization_causality","attributeB","0","250","0","0","0","0","18","1","739","0","5","precludes","50pct","50pct","-14","0","0","0","0","0"
"011317","16:26:18","105","105","4.0.10.0","1","18","categorization_causality","attributeB","0","250","0","0","0","0","18","1","693","0","8","blocks","50pct","50pct","-14","0","0","0","0","0"
"011317","16:26:18","105","105","4.0.10.0","1","19","categorization_causality","attributeA","0","250","0","0","0","0","23","1","2162","0","6","affects","50pct","50pct","-14","0","0","0","0","0"
"011317","16:26:18","105","105","4.0.10.0","1","20","categorization_causality","attributeB","0","250","0","0","0","0","18","1","830","0","6","avoids","50pct","50pct","-14","0","0","0","0","0"
"011317","16:26:18","105","105","4.0.10.0","1","21","categorization_causality","attributeB","0","250","0","0","0","0","18","1","7785","0","1","stops","50pct","50pct","-15","0","0","0","0","0"
"011317","16:26:18","105","105","4.0.10.0","1","22","categorization_causality","attributeA","0","250","0","0","0","0","23","1","7278","0","8","predicts","50pct","50pct","-15","0","0","0","0","0"
"011317","16:26:18","105","105","4.0.10.0","1","23","categorization_causality","attributeB","0","250","0","0","0","0","18","1","1027","0","4","averts","50pct","50pct","-14","0","0","0","0","0"
"011317","16:26:18","105","105","4.0.10.0","1","24","categorization_causality","attributeB","0","250","0","0","0","0","18","1","4549","0","7","ends","50pct","50pct","-14","0","0","0","0","0"
"011317","16:26:18","105","105","4.0.10.0","1","25","categorization_causality","attributeA","0","250","0","0","0","0","23","1","797","0","2","results in","50pct","50pct","-15","0","0","0","0","0"
"011317","16:26:18","105","105","4.0.10.0","1","26","categorization_causality","attributeB","0","250","0","0","0","0","18","1","750","0","4","averts","50pct","50pct","-15","0","0","0","0","0"
"011317","16:26:18","105","105","4.0.10.0","1","27","categorization_causality","attributeB","0","250","0","0","0","0","18","1","1065","0","6","avoids","50pct","50pct","-15","0","0","0","0","0"
"011317","16:26:18","105","105","4.0.10.0","1","28","categorization_causality","attributeA","0","250","0","0","0","0","23","1","845","0","4","starts","50pct","50pct","-14","0","0","0","0","0"
"011317","16:26:18","105","105","4.0.10.0","1","29","categorization_causality","attributeA","0","250","0","0","0","0","23","0","4244","0","8","predicts","50pct","50pct","-15","1","X","75pct","50pct","3820"
"011317","16:26:18","105","105","4.0.10.0","1","30","categorization_causality","attributeA","0","250","0","0","0","0","23","1","800","0","7","influences","50pct","50pct","-14","0","0","0","0","0"
"011317","16:26:18","105","105","4.0.10.0","1","31","categorization_causality","attributeA","0","250","0","0","0","0","23","1","753","0","1","leads to","50pct","50pct","-15","0","0","0","0","0"
"011317","16:26:18","105","105","4.0.10.0","1","32","categorization_causality","attributeA","0","250","0","0","0","0","23","1","739","0","6","affects","50pct","50pct","-14","0","0","0","0","0"
"011317","16:26:18","105","105","4.0.10.0","1","33","categorization_causality","attributeA","0","250","0","0","0","0","23","1","1030","0","2","results in","50pct","50pct","-14","0","0","0","0","0"
"011317","16:26:18","105","105","4.0.10.0","1","34","categorization_causality","attributeA","0","250","0","0","0","0","23","1","628","0","5","determines","50pct","50pct","-14","0","0","0","0","0"
"011317","16:26:18","105","105","4.0.10.0","1","35","categorization_causality","attributeB","0","250","0","0","0","0","18","1","532","0","2","halts","50pct","50pct","-14","0","0","0","0","0"
"011317","16:26:18","105","105","4.0.10.0","1","36","categorization_causality","attributeA","0","250","0","0","0","0","23","1","705","0","3","produces","50pct","50pct","-15","0","0","0","0","0"
"011317","16:26:18","105","105","4.0.10.0","1","37","categorization_causality","attributeB","0","250","0","0","0","0","18","1","861","0","1","stops","50pct","50pct","-14","0","0","0","0","0"
"011317","16:26:18","105","105","4.0.10.0","1","38","categorization_causality","attributeB","0","250","0","0","0","0","18","1","747","0","7","ends","50pct","50pct","-15","0","0","0","0","0"
