"date","time","group","subject","build","blocknum","trialnum","blockcode","trialcode","pretrialpause","posttrialpause","windowcenter","trialduration","trialtimeout","blocktimeout","response","correct","latency","inwindow","stimulusnumber1","stimulusitem1","stimulusvpos1","stimulushpos1","stimulusonset1","stimulusnumber2","stimulusitem2","stimulusvpos2","stimulushpos2","stimulusonset2"
"011417","14:48:09","108","108","4.0.10.0","1","2","categorization_truth","attributeB","0","250","0","0","0","0","18","1","742","0","4","inaccurate","50pct","50pct","1","0","0","0","0","0"
"011417","14:48:09","108","108","4.0.10.0","1","3","categorization_truth","attributeA","0","250","0","0","0","0","23","1","665","0","6","valid","50pct","50pct","0","0","0","0","0","0"
"011417","14:48:09","108","108","4.0.10.0","1","4","categorization_truth","attributeB","0","250","0","0","0","0","18","1","624","0","3","wrong","50pct","50pct","0","0","0","0","0","0"
"011417","14:48:09","108","108","4.0.10.0","1","5","categorization_truth","attributeA","0","250","0","0","0","0","23","1","523","0","1","correct","50pct","50pct","1","0","0","0","0","0"
"011417","14:48:09","108","108","4.0.10.0","1","6","categorization_truth","attributeB","0","250","0","0","0","0","18","1","749","0","8","untrue","50pct","50pct","0","0","0","0","0","0"
"011417","14:48:09","108","108","4.0.10.0","1","7","categorization_truth","attributeA","0","250","0","0","0","0","23","1","655","0","8","sure","50pct","50pct","0","0","0","0","0","0"
"011417","14:48:09","108","108","4.0.10.0","1","8","categorization_truth","attributeA","0","250","0","0","0","0","23","1","948","0","4","accurate","50pct","50pct","0","0","0","0","0","0"
"011417","14:48:09","108","108","4.0.10.0","1","9","categorization_truth","attributeB","0","250","0","0","0","0","18","1","531","0","5","no","50pct","50pct","0","0","0","0","0","0"
"011417","14:48:09","108","108","4.0.10.0","1","10","categorization_truth","attributeB","0","250","0","0","0","0","18","1","653","0","2","deny","50pct","50pct","0","0","0","0","0","0"
"011417","14:48:09","108","108","4.0.10.0","1","11","categorization_truth","attributeA","0","250","0","0","0","0","23","1","658","0","2","confirm","50pct","50pct","0","0","0","0","0","0"
"011417","14:48:09","108","108","4.0.10.0","1","12","categorization_truth","attributeB","0","250","0","0","0","0","18","1","1119","0","7","inexact","50pct","50pct","0","0","0","0","0","0"
"011417","14:48:09","108","108","4.0.10.0","1","13","categorization_truth","attributeA","0","250","0","0","0","0","23","1","484","0","5","yes","50pct","50pct","0","0","0","0","0","0"
"011417","14:48:09","108","108","4.0.10.0","1","14","categorization_truth","attributeA","0","250","0","0","0","0","23","1","728","0","7","definite","50pct","50pct","0","0","0","0","0","0"
"011417","14:48:09","108","108","4.0.10.0","1","15","categorization_truth","attributeB","0","250","0","0","0","0","18","0","1078","0","1","incorrect","50pct","50pct","0","1","X","75pct","50pct","650"
"011417","14:48:09","108","108","4.0.10.0","1","16","categorization_truth","attributeA","0","250","0","0","0","0","23","1","427","0","3","right","50pct","50pct","0","0","0","0","0","0"
"011417","14:48:09","108","108","4.0.10.0","1","17","categorization_truth","attributeA","0","250","0","0","0","0","23","1","843","0","7","definite","50pct","50pct","0","0","0","0","0","0"
"011417","14:48:09","108","108","4.0.10.0","1","18","categorization_truth","attributeB","0","250","0","0","0","0","18","1","678","0","6","invalid","50pct","50pct","0","0","0","0","0","0"
"011417","14:48:09","108","108","4.0.10.0","1","19","categorization_truth","attributeA","0","250","0","0","0","0","23","1","533","0","2","confirm","50pct","50pct","0","0","0","0","0","0"
"011417","14:48:09","108","108","4.0.10.0","1","20","categorization_truth","attributeA","0","250","0","0","0","0","23","1","569","0","5","yes","50pct","50pct","0","0","0","0","0","0"
"011417","14:48:09","108","108","4.0.10.0","1","21","categorization_truth","attributeA","0","250","0","0","0","0","23","1","779","0","3","right","50pct","50pct","0","0","0","0","0","0"
"011417","14:48:09","108","108","4.0.10.0","1","22","categorization_truth","attributeB","0","250","0","0","0","0","18","1","627","0","1","incorrect","50pct","50pct","0","0","0","0","0","0"
"011417","14:48:09","108","108","4.0.10.0","1","23","categorization_truth","attributeB","0","250","0","0","0","0","18","1","563","0","2","deny","50pct","50pct","0","0","0","0","0","0"
"011417","14:48:09","108","108","4.0.10.0","1","24","categorization_truth","attributeB","0","250","0","0","0","0","18","1","815","0","4","inaccurate","50pct","50pct","1","0","0","0","0","0"
"011417","14:48:09","108","108","4.0.10.0","1","25","categorization_truth","attributeA","0","250","0","0","0","0","23","1","553","0","4","accurate","50pct","50pct","0","0","0","0","0","0"
"011417","14:48:09","108","108","4.0.10.0","1","26","categorization_truth","attributeA","0","250","0","0","0","0","23","1","671","0","8","sure","50pct","50pct","1","0","0","0","0","0"
"011417","14:48:09","108","108","4.0.10.0","1","27","categorization_truth","attributeB","0","250","0","0","0","0","18","1","576","0","8","untrue","50pct","50pct","0","0","0","0","0","0"
"011417","14:48:09","108","108","4.0.10.0","1","28","categorization_truth","attributeB","0","250","0","0","0","0","18","1","518","0","3","wrong","50pct","50pct","0","0","0","0","0","0"
"011417","14:48:09","108","108","4.0.10.0","1","29","categorization_truth","attributeA","0","250","0","0","0","0","23","1","780","0","6","valid","50pct","50pct","0","0","0","0","0","0"
"011417","14:48:09","108","108","4.0.10.0","1","30","categorization_truth","attributeA","0","250","0","0","0","0","23","1","719","0","1","correct","50pct","50pct","0","0","0","0","0","0"
"011417","14:48:09","108","108","4.0.10.0","1","31","categorization_truth","attributeB","0","250","0","0","0","0","18","1","629","0","5","no","50pct","50pct","0","0","0","0","0","0"
"011417","14:48:09","108","108","4.0.10.0","1","32","categorization_truth","attributeA","0","250","0","0","0","0","23","1","1221","0","1","correct","50pct","50pct","0","0","0","0","0","0"
"011417","14:48:09","108","108","4.0.10.0","1","33","categorization_truth","attributeA","0","250","0","0","0","0","23","1","428","0","5","yes","50pct","50pct","0","0","0","0","0","0"
"011417","14:48:09","108","108","4.0.10.0","1","34","categorization_truth","attributeB","0","250","0","0","0","0","18","1","508","0","6","invalid","50pct","50pct","0","0","0","0","0","0"
"011417","14:48:09","108","108","4.0.10.0","1","35","categorization_truth","attributeB","0","250","0","0","0","0","18","1","548","0","7","inexact","50pct","50pct","0","0","0","0","0","0"
"011417","14:48:09","108","108","4.0.10.0","1","36","categorization_truth","attributeA","0","250","0","0","0","0","23","1","549","0","7","definite","50pct","50pct","0","0","0","0","0","0"
"011417","14:48:09","108","108","4.0.10.0","1","37","categorization_truth","attributeA","0","250","0","0","0","0","23","1","504","0","8","sure","50pct","50pct","1","0","0","0","0","0"
"011417","14:48:09","108","108","4.0.10.0","1","38","categorization_truth","attributeB","0","250","0","0","0","0","18","1","515","0","1","incorrect","50pct","50pct","0","0","0","0","0","0"
"011417","14:48:09","108","108","4.0.10.0","1","39","categorization_truth","attributeA","0","250","0","0","0","0","23","1","535","0","2","confirm","50pct","50pct","0","0","0","0","0","0"
"011417","14:48:09","108","108","4.0.10.0","1","40","categorization_truth","attributeA","0","250","0","0","0","0","23","1","541","0","3","right","50pct","50pct","0","0","0","0","0","0"
"011417","14:48:09","108","108","4.0.10.0","1","41","categorization_truth","attributeB","0","250","0","0","0","0","18","1","485","0","5","no","50pct","50pct","0","0","0","0","0","0"
"011417","14:48:09","108","108","4.0.10.0","1","42","categorization_truth","attributeA","0","250","0","0","0","0","23","1","491","0","6","valid","50pct","50pct","0","0","0","0","0","0"
"011417","14:48:09","108","108","4.0.10.0","1","43","categorization_truth","attributeA","0","250","0","0","0","0","23","1","494","0","4","accurate","50pct","50pct","0","0","0","0","0","0"
"011417","14:48:09","108","108","4.0.10.0","1","44","categorization_truth","attributeB","0","250","0","0","0","0","18","1","608","0","7","inexact","50pct","50pct","0","0","0","0","0","0"
"011417","14:48:09","108","108","4.0.10.0","1","45","categorization_truth","attributeA","0","250","0","0","0","0","23","1","429","0","5","yes","50pct","50pct","0","0","0","0","0","0"
"011417","14:48:09","108","108","4.0.10.0","1","46","categorization_truth","attributeA","0","250","0","0","0","0","23","1","401","0","8","sure","50pct","50pct","0","0","0","0","0","0"
"011417","14:48:09","108","108","4.0.10.0","1","47","categorization_truth","attributeB","0","250","0","0","0","0","18","1","449","0","4","inaccurate","50pct","50pct","0","0","0","0","0","0"
"011417","14:48:09","108","108","4.0.10.0","1","48","categorization_truth","attributeA","0","250","0","0","0","0","23","1","502","0","7","definite","50pct","50pct","0","0","0","0","0","0"
"011417","14:48:09","108","108","4.0.10.0","1","49","categorization_truth","attributeB","0","250","0","0","0","0","18","1","544","0","3","wrong","50pct","50pct","0","0","0","0","0","0"
"011417","14:48:09","108","108","4.0.10.0","1","50","categorization_truth","attributeB","0","250","0","0","0","0","18","1","900","0","6","invalid","50pct","50pct","0","0","0","0","0","0"
"011417","14:48:09","108","108","4.0.10.0","1","51","categorization_truth","attributeB","0","250","0","0","0","0","18","1","686","0","2","deny","50pct","50pct","0","0","0","0","0","0"
"011417","14:48:09","108","108","4.0.10.0","1","52","categorization_truth","attributeB","0","250","0","0","0","0","18","1","1147","0","8","untrue","50pct","50pct","0","0","0","0","0","0"
"011417","14:48:09","108","108","4.0.10.0","1","53","categorization_truth","attributeA","0","250","0","0","0","0","23","1","863","0","6","valid","50pct","50pct","0","0","0","0","0","0"
"011417","14:48:09","108","108","4.0.10.0","1","54","categorization_truth","attributeB","0","250","0","0","0","0","18","1","598","0","7","inexact","50pct","50pct","0","0","0","0","0","0"
"011417","14:48:09","108","108","4.0.10.0","1","55","categorization_truth","attributeB","0","250","0","0","0","0","18","1","854","0","4","inaccurate","50pct","50pct","0","0","0","0","0","0"
"011417","14:48:09","108","108","4.0.10.0","1","56","categorization_truth","attributeB","0","250","0","0","0","0","18","1","563","0","5","no","50pct","50pct","0","0","0","0","0","0"
"011417","14:48:09","108","108","4.0.10.0","1","57","categorization_truth","attributeA","0","250","0","0","0","0","23","1","560","0","1","correct","50pct","50pct","0","0","0","0","0","0"
"011417","14:48:09","108","108","4.0.10.0","1","58","categorization_truth","attributeA","0","250","0","0","0","0","23","1","602","0","4","accurate","50pct","50pct","0","0","0","0","0","0"
"011417","14:48:09","108","108","4.0.10.0","1","59","categorization_truth","attributeA","0","250","0","0","0","0","23","1","639","0","2","confirm","50pct","50pct","0","0","0","0","0","0"
"011417","14:48:09","108","108","4.0.10.0","1","60","categorization_truth","attributeB","0","250","0","0","0","0","18","1","812","0","3","wrong","50pct","50pct","0","0","0","0","0","0"
"011417","14:48:09","108","108","4.0.10.0","1","61","categorization_truth","attributeA","0","250","0","0","0","0","23","1","490","0","3","right","50pct","50pct","0","0","0","0","0","0"
"011417","14:48:09","108","108","4.0.10.0","1","62","categorization_truth","attributeA","0","250","0","0","0","0","23","1","583","0","8","sure","50pct","50pct","0","0","0","0","0","0"
"011417","14:48:09","108","108","4.0.10.0","1","63","categorization_truth","attributeB","0","250","0","0","0","0","18","1","473","0","8","untrue","50pct","50pct","1","0","0","0","0","0"
"011417","14:48:09","108","108","4.0.10.0","1","64","categorization_truth","attributeA","0","250","0","0","0","0","23","1","470","0","1","correct","50pct","50pct","0","0","0","0","0","0"
"011417","14:48:09","108","108","4.0.10.0","1","65","categorization_truth","attributeA","0","250","0","0","0","0","23","1","610","0","7","definite","50pct","50pct","0","0","0","0","0","0"
"011417","14:48:09","108","108","4.0.10.0","1","66","categorization_truth","attributeA","0","250","0","0","0","0","23","1","640","0","2","confirm","50pct","50pct","0","0","0","0","0","0"
"011417","14:48:09","108","108","4.0.10.0","1","67","categorization_truth","attributeB","0","250","0","0","0","0","18","1","697","0","1","incorrect","50pct","50pct","0","0","0","0","0","0"
"011417","14:48:09","108","108","4.0.10.0","1","68","categorization_truth","attributeA","0","250","0","0","0","0","23","1","534","0","6","valid","50pct","50pct","0","0","0","0","0","0"
"011417","14:48:09","108","108","4.0.10.0","1","69","categorization_truth","attributeB","0","250","0","0","0","0","18","1","567","0","6","invalid","50pct","50pct","1","0","0","0","0","0"
"011417","14:48:09","108","108","4.0.10.0","1","70","categorization_truth","attributeB","0","250","0","0","0","0","18","0","1008","0","2","deny","50pct","50pct","0","1","X","75pct","50pct","500"
"011417","14:48:09","108","108","4.0.10.0","1","71","categorization_truth","attributeB","0","250","0","0","0","0","18","0","1639","0","1","incorrect","50pct","50pct","0","1","X","75pct","50pct","1266"
"011417","14:48:09","108","108","4.0.10.0","1","72","categorization_truth","attributeA","0","250","0","0","0","0","23","1","508","0","4","accurate","50pct","50pct","0","0","0","0","0","0"
"011417","14:48:09","108","108","4.0.10.0","1","73","categorization_truth","attributeB","0","250","0","0","0","0","18","1","735","0","7","inexact","50pct","50pct","0","0","0","0","0","0"
"011417","14:48:09","108","108","4.0.10.0","1","74","categorization_truth","attributeA","0","250","0","0","0","0","23","1","518","0","3","right","50pct","50pct","0","0","0","0","0","0"
"011417","14:48:09","108","108","4.0.10.0","1","75","categorization_truth","attributeB","0","250","0","0","0","0","18","1","465","0","2","deny","50pct","50pct","0","0","0","0","0","0"
"011417","14:48:09","108","108","4.0.10.0","1","76","categorization_truth","attributeB","0","250","0","0","0","0","18","1","598","0","8","untrue","50pct","50pct","0","0","0","0","0","0"
"011417","14:48:09","108","108","4.0.10.0","1","77","categorization_truth","attributeA","0","250","0","0","0","0","23","1","506","0","5","yes","50pct","50pct","0","0","0","0","0","0"
"011417","14:48:09","108","108","4.0.10.0","1","78","categorization_truth","attributeB","0","250","0","0","0","0","18","1","630","0","3","wrong","50pct","50pct","1","0","0","0","0","0"
"011417","14:48:09","108","108","4.0.10.0","1","79","categorization_truth","attributeB","0","250","0","0","0","0","18","1","707","0","4","inaccurate","50pct","50pct","0","0","0","0","0","0"
"011417","14:48:09","108","108","4.0.10.0","1","80","categorization_truth","attributeB","0","250","0","0","0","0","18","1","534","0","5","no","50pct","50pct","0","0","0","0","0","0"
"011417","14:48:09","108","108","4.0.10.0","1","81","categorization_truth","attributeB","0","250","0","0","0","0","18","1","494","0","6","invalid","50pct","50pct","0","0","0","0","0","0"
"011417","14:48:09","108","108","4.0.10.0","2","2","categorization_truth","attributeA","0","250","0","0","0","0","23","1","684","0","1","correct","50pct","50pct","0","0","0","0","0","0"
"011417","14:48:09","108","108","4.0.10.0","2","3","categorization_truth","attributeB","0","250","0","0","0","0","18","1","433","0","1","incorrect","50pct","50pct","0","0","0","0","0","0"
"011417","14:48:09","108","108","4.0.10.0","2","4","categorization_truth","attributeA","0","250","0","0","0","0","23","1","567","0","2","confirm","50pct","50pct","0","0","0","0","0","0"
"011417","14:48:09","108","108","4.0.10.0","2","5","categorization_truth","attributeA","0","250","0","0","0","0","23","1","480","0","8","sure","50pct","50pct","0","0","0","0","0","0"
"011417","14:48:09","108","108","4.0.10.0","2","6","categorization_truth","attributeB","0","250","0","0","0","0","18","1","482","0","3","wrong","50pct","50pct","1","0","0","0","0","0"
"011417","14:48:09","108","108","4.0.10.0","2","7","categorization_truth","attributeA","0","250","0","0","0","0","23","1","431","0","5","yes","50pct","50pct","0","0","0","0","0","0"
"011417","14:48:09","108","108","4.0.10.0","2","8","categorization_truth","attributeA","0","250","0","0","0","0","23","1","487","0","3","right","50pct","50pct","0","0","0","0","0","0"
"011417","14:48:09","108","108","4.0.10.0","2","9","categorization_truth","attributeA","0","250","0","0","0","0","23","1","545","0","7","definite","50pct","50pct","0","0","0","0","0","0"
"011417","14:48:09","108","108","4.0.10.0","2","10","categorization_truth","attributeA","0","250","0","0","0","0","23","1","633","0","6","valid","50pct","50pct","1","0","0","0","0","0"
"011417","14:48:09","108","108","4.0.10.0","2","11","categorization_truth","attributeB","0","250","0","0","0","0","18","1","527","0","6","invalid","50pct","50pct","0","0","0","0","0","0"
"011417","14:48:09","108","108","4.0.10.0","2","12","categorization_truth","attributeB","0","250","0","0","0","0","18","1","654","0","2","deny","50pct","50pct","0","0","0","0","0","0"
"011417","14:48:09","108","108","4.0.10.0","2","13","categorization_truth","attributeB","0","250","0","0","0","0","18","1","501","0","5","no","50pct","50pct","0","0","0","0","0","0"
"011417","14:48:09","108","108","4.0.10.0","2","14","categorization_truth","attributeB","0","250","0","0","0","0","18","1","637","0","7","inexact","50pct","50pct","1","0","0","0","0","0"
"011417","14:48:09","108","108","4.0.10.0","2","15","categorization_truth","attributeB","0","250","0","0","0","0","18","1","831","0","8","untrue","50pct","50pct","0","0","0","0","0","0"
"011417","14:48:09","108","108","4.0.10.0","2","16","categorization_truth","attributeA","0","250","0","0","0","0","23","1","805","0","4","accurate","50pct","50pct","0","0","0","0","0","0"
"011417","14:48:09","108","108","4.0.10.0","2","17","categorization_truth","attributeA","0","250","0","0","0","0","23","1","1343","0","7","definite","50pct","50pct","0","0","0","0","0","0"
"011417","14:48:09","108","108","4.0.10.0","2","18","categorization_truth","attributeB","0","250","0","0","0","0","18","1","455","0","4","inaccurate","50pct","50pct","0","0","0","0","0","0"
"011417","14:48:09","108","108","4.0.10.0","2","19","categorization_truth","attributeA","0","250","0","0","0","0","23","1","529","0","1","correct","50pct","50pct","0","0","0","0","0","0"
"011417","14:48:09","108","108","4.0.10.0","2","20","categorization_truth","attributeB","0","250","0","0","0","0","18","1","536","0","6","invalid","50pct","50pct","0","0","0","0","0","0"
"011417","14:48:09","108","108","4.0.10.0","2","21","categorization_truth","attributeA","0","250","0","0","0","0","23","1","494","0","6","valid","50pct","50pct","0","0","0","0","0","0"
"011417","14:48:09","108","108","4.0.10.0","2","22","categorization_truth","attributeB","0","250","0","0","0","0","18","1","522","0","1","incorrect","50pct","50pct","0","0","0","0","0","0"
"011417","14:48:09","108","108","4.0.10.0","2","23","categorization_truth","attributeA","0","250","0","0","0","0","23","1","431","0","5","yes","50pct","50pct","0","0","0","0","0","0"
"011417","14:48:09","108","108","4.0.10.0","2","24","categorization_truth","attributeA","0","250","0","0","0","0","23","1","598","0","2","confirm","50pct","50pct","0","0","0","0","0","0"
"011417","14:48:09","108","108","4.0.10.0","2","25","categorization_truth","attributeA","0","250","0","0","0","0","23","1","541","0","3","right","50pct","50pct","0","0","0","0","0","0"
"011417","14:48:09","108","108","4.0.10.0","2","26","categorization_truth","attributeB","0","250","0","0","0","0","18","1","500","0","4","inaccurate","50pct","50pct","0","0","0","0","0","0"
"011417","14:48:09","108","108","4.0.10.0","2","27","categorization_truth","attributeB","0","250","0","0","0","0","18","1","653","0","5","no","50pct","50pct","0","0","0","0","0","0"
"011417","14:48:09","108","108","4.0.10.0","2","28","categorization_truth","attributeA","0","250","0","0","0","0","23","1","440","0","8","sure","50pct","50pct","1","0","0","0","0","0"
"011417","14:48:09","108","108","4.0.10.0","2","29","categorization_truth","attributeA","0","250","0","0","0","0","23","1","513","0","4","accurate","50pct","50pct","1","0","0","0","0","0"
"011417","14:48:09","108","108","4.0.10.0","2","30","categorization_truth","attributeB","0","250","0","0","0","0","18","1","474","0","3","wrong","50pct","50pct","0","0","0","0","0","0"
"011417","14:48:09","108","108","4.0.10.0","2","31","categorization_truth","attributeA","0","250","0","0","0","0","23","1","545","0","1","correct","50pct","50pct","0","0","0","0","0","0"
"011417","14:48:09","108","108","4.0.10.0","2","32","categorization_truth","attributeB","0","250","0","0","0","0","18","1","574","0","2","deny","50pct","50pct","1","0","0","0","0","0"
"011417","14:48:09","108","108","4.0.10.0","2","33","categorization_truth","attributeA","0","250","0","0","0","0","23","1","553","0","8","sure","50pct","50pct","1","0","0","0","0","0"
"011417","14:48:09","108","108","4.0.10.0","2","34","categorization_truth","attributeA","0","250","0","0","0","0","23","1","520","0","2","confirm","50pct","50pct","0","0","0","0","0","0"
"011417","14:48:09","108","108","4.0.10.0","2","35","categorization_truth","attributeA","0","250","0","0","0","0","23","1","582","0","6","valid","50pct","50pct","0","0","0","0","0","0"
"011417","14:48:09","108","108","4.0.10.0","2","36","categorization_truth","attributeA","0","250","0","0","0","0","23","1","428","0","5","yes","50pct","50pct","0","0","0","0","0","0"
"011417","14:48:09","108","108","4.0.10.0","2","37","categorization_truth","attributeB","0","250","0","0","0","0","18","1","518","0","8","untrue","50pct","50pct","0","0","0","0","0","0"
"011417","14:48:09","108","108","4.0.10.0","2","38","categorization_truth","attributeB","0","250","0","0","0","0","18","1","656","0","7","inexact","50pct","50pct","0","0","0","0","0","0"
"011417","14:48:09","108","108","4.0.10.0","2","39","categorization_truth","attributeA","0","250","0","0","0","0","23","1","641","0","7","definite","50pct","50pct","0","0","0","0","0","0"
"011417","14:48:09","108","108","4.0.10.0","2","40","categorization_truth","attributeB","0","250","0","0","0","0","18","1","616","0","4","inaccurate","50pct","50pct","0","0","0","0","0","0"
"011417","14:48:09","108","108","4.0.10.0","2","41","categorization_truth","attributeB","0","250","0","0","0","0","18","1","532","0","5","no","50pct","50pct","0","0","0","0","0","0"
"011417","14:48:09","108","108","4.0.10.0","2","42","categorization_truth","attributeB","0","250","0","0","0","0","18","1","755","0","6","invalid","50pct","50pct","0","0","0","0","0","0"
"011417","14:48:09","108","108","4.0.10.0","2","43","categorization_truth","attributeB","0","250","0","0","0","0","18","0","1501","0","2","deny","50pct","50pct","0","1","X","75pct","50pct","1233"
"011417","14:48:09","108","108","4.0.10.0","2","44","categorization_truth","attributeA","0","250","0","0","0","0","23","1","392","0","4","accurate","50pct","50pct","0","0","0","0","0","0"
"011417","14:48:09","108","108","4.0.10.0","2","45","categorization_truth","attributeB","0","250","0","0","0","0","18","1","568","0","1","incorrect","50pct","50pct","0","0","0","0","0","0"
"011417","14:48:09","108","108","4.0.10.0","2","46","categorization_truth","attributeA","0","250","0","0","0","0","23","1","420","0","3","right","50pct","50pct","0","0","0","0","0","0"
"011417","14:48:09","108","108","4.0.10.0","2","47","categorization_truth","attributeA","0","250","0","0","0","0","23","1","347","0","3","right","50pct","50pct","0","0","0","0","0","0"
"011417","14:48:09","108","108","4.0.10.0","2","48","categorization_truth","attributeB","0","250","0","0","0","0","18","1","420","0","7","inexact","50pct","50pct","0","0","0","0","0","0"
"011417","14:48:09","108","108","4.0.10.0","2","49","categorization_truth","attributeB","0","250","0","0","0","0","18","1","693","0","8","untrue","50pct","50pct","0","0","0","0","0","0"
"011417","14:48:09","108","108","4.0.10.0","2","50","categorization_truth","attributeB","0","250","0","0","0","0","18","1","553","0","3","wrong","50pct","50pct","0","0","0","0","0","0"
"011417","14:48:09","108","108","4.0.10.0","2","51","categorization_truth","attributeA","0","250","0","0","0","0","23","1","506","0","5","yes","50pct","50pct","0","0","0","0","0","0"
"011417","14:48:09","108","108","4.0.10.0","2","52","categorization_truth","attributeB","0","250","0","0","0","0","18","1","556","0","1","incorrect","50pct","50pct","0","0","0","0","0","0"
"011417","14:48:09","108","108","4.0.10.0","2","53","categorization_truth","attributeA","0","250","0","0","0","0","23","1","393","0","8","sure","50pct","50pct","1","0","0","0","0","0"
"011417","14:48:09","108","108","4.0.10.0","2","54","categorization_truth","attributeB","0","250","0","0","0","0","18","1","456","0","2","deny","50pct","50pct","0","0","0","0","0","0"
"011417","14:48:09","108","108","4.0.10.0","2","55","categorization_truth","attributeB","0","250","0","0","0","0","18","1","512","0","3","wrong","50pct","50pct","1","0","0","0","0","0"
"011417","14:48:09","108","108","4.0.10.0","2","56","categorization_truth","attributeA","0","250","0","0","0","0","23","1","541","0","4","accurate","50pct","50pct","1","0","0","0","0","0"
"011417","14:48:09","108","108","4.0.10.0","2","57","categorization_truth","attributeB","0","250","0","0","0","0","18","1","699","0","6","invalid","50pct","50pct","0","0","0","0","0","0"
"011417","14:48:09","108","108","4.0.10.0","2","58","categorization_truth","attributeA","0","250","0","0","0","0","23","1","518","0","1","correct","50pct","50pct","0","0","0","0","0","0"
"011417","14:48:09","108","108","4.0.10.0","2","59","categorization_truth","attributeB","0","250","0","0","0","0","18","1","486","0","4","inaccurate","50pct","50pct","0","0","0","0","0","0"
"011417","14:48:09","108","108","4.0.10.0","2","60","categorization_truth","attributeB","0","250","0","0","0","0","18","1","717","0","5","no","50pct","50pct","0","0","0","0","0","0"
"011417","14:48:09","108","108","4.0.10.0","2","61","categorization_truth","attributeB","0","250","0","0","0","0","18","1","613","0","7","inexact","50pct","50pct","0","0","0","0","0","0"
"011417","14:48:09","108","108","4.0.10.0","2","62","categorization_truth","attributeB","0","250","0","0","0","0","18","1","574","0","8","untrue","50pct","50pct","0","0","0","0","0","0"
"011417","14:48:09","108","108","4.0.10.0","2","63","categorization_truth","attributeA","0","250","0","0","0","0","23","1","586","0","6","valid","50pct","50pct","0","0","0","0","0","0"
"011417","14:48:09","108","108","4.0.10.0","2","64","categorization_truth","attributeB","0","250","0","0","0","0","18","1","534","0","6","invalid","50pct","50pct","0","0","0","0","0","0"
"011417","14:48:09","108","108","4.0.10.0","2","65","categorization_truth","attributeB","0","250","0","0","0","0","18","1","467","0","4","inaccurate","50pct","50pct","0","0","0","0","0","0"
"011417","14:48:09","108","108","4.0.10.0","2","66","categorization_truth","attributeB","0","250","0","0","0","0","18","0","946","0","5","no","50pct","50pct","0","1","X","75pct","50pct","666"
"011417","14:48:09","108","108","4.0.10.0","2","67","categorization_truth","attributeA","0","250","0","0","0","0","23","1","583","0","7","definite","50pct","50pct","0","0","0","0","0","0"
"011417","14:48:09","108","108","4.0.10.0","2","68","categorization_truth","attributeA","0","250","0","0","0","0","23","1","674","0","2","confirm","50pct","50pct","1","0","0","0","0","0"
"011417","14:48:09","108","108","4.0.10.0","2","69","categorization_truth","attributeA","0","250","0","0","0","0","23","1","472","0","1","correct","50pct","50pct","0","0","0","0","0","0"
"011417","14:48:09","108","108","4.0.10.0","2","70","categorization_truth","attributeB","0","250","0","0","0","0","18","1","497","0","2","deny","50pct","50pct","0","0","0","0","0","0"
"011417","14:48:09","108","108","4.0.10.0","2","71","categorization_truth","attributeB","0","250","0","0","0","0","18","1","569","0","3","wrong","50pct","50pct","0","0","0","0","0","0"
"011417","14:48:09","108","108","4.0.10.0","2","72","categorization_truth","attributeA","0","250","0","0","0","0","23","1","1221","0","7","definite","50pct","50pct","1","0","0","0","0","0"
"011417","14:48:09","108","108","4.0.10.0","2","73","categorization_truth","attributeA","0","250","0","0","0","0","23","1","522","0","2","confirm","50pct","50pct","0","0","0","0","0","0"
"011417","14:48:09","108","108","4.0.10.0","2","74","categorization_truth","attributeA","0","250","0","0","0","0","23","1","486","0","3","right","50pct","50pct","0","0","0","0","0","0"
"011417","14:48:09","108","108","4.0.10.0","2","75","categorization_truth","attributeA","0","250","0","0","0","0","23","1","631","0","4","accurate","50pct","50pct","0","0","0","0","0","0"
"011417","14:48:09","108","108","4.0.10.0","2","76","categorization_truth","attributeA","0","250","0","0","0","0","23","1","439","0","5","yes","50pct","50pct","1","0","0","0","0","0"
"011417","14:48:09","108","108","4.0.10.0","2","77","categorization_truth","attributeA","0","250","0","0","0","0","23","1","450","0","8","sure","50pct","50pct","1","0","0","0","0","0"
"011417","14:48:09","108","108","4.0.10.0","2","78","categorization_truth","attributeB","0","250","0","0","0","0","18","1","585","0","7","inexact","50pct","50pct","0","0","0","0","0","0"
"011417","14:48:09","108","108","4.0.10.0","2","79","categorization_truth","attributeB","0","250","0","0","0","0","18","1","467","0","8","untrue","50pct","50pct","0","0","0","0","0","0"
"011417","14:48:09","108","108","4.0.10.0","2","80","categorization_truth","attributeB","0","250","0","0","0","0","18","1","678","0","1","incorrect","50pct","50pct","0","0","0","0","0","0"
"011417","14:48:09","108","108","4.0.10.0","2","81","categorization_truth","attributeA","0","250","0","0","0","0","23","1","690","0","6","valid","50pct","50pct","0","0","0","0","0","0"
"011417","14:48:09","108","108","4.0.10.0","3","2","categorization_truth","attributeB","0","250","0","0","0","0","18","1","563","0","8","untrue","50pct","50pct","0","0","0","0","0","0"
"011417","14:48:09","108","108","4.0.10.0","3","3","categorization_truth","attributeA","0","250","0","0","0","0","23","1","541","0","1","correct","50pct","50pct","0","0","0","0","0","0"
"011417","14:48:09","108","108","4.0.10.0","3","4","categorization_truth","attributeA","0","250","0","0","0","0","23","1","418","0","5","yes","50pct","50pct","0","0","0","0","0","0"
"011417","14:48:09","108","108","4.0.10.0","3","5","categorization_truth","attributeA","0","250","0","0","0","0","23","1","486","0","6","valid","50pct","50pct","0","0","0","0","0","0"
"011417","14:48:09","108","108","4.0.10.0","3","6","categorization_truth","attributeB","0","250","0","0","0","0","18","1","417","0","5","no","50pct","50pct","0","0","0","0","0","0"
"011417","14:48:09","108","108","4.0.10.0","3","7","categorization_truth","attributeB","0","250","0","0","0","0","18","1","546","0","7","inexact","50pct","50pct","0","0","0","0","0","0"
"011417","14:48:09","108","108","4.0.10.0","3","8","categorization_truth","attributeB","0","250","0","0","0","0","18","1","428","0","6","invalid","50pct","50pct","0","0","0","0","0","0"
"011417","14:48:09","108","108","4.0.10.0","3","9","categorization_truth","attributeB","0","250","0","0","0","0","18","1","503","0","2","deny","50pct","50pct","0","0","0","0","0","0"
"011417","14:48:09","108","108","4.0.10.0","3","10","categorization_truth","attributeB","0","250","0","0","0","0","18","1","423","0","3","wrong","50pct","50pct","0","0","0","0","0","0"
"011417","14:48:09","108","108","4.0.10.0","3","11","categorization_truth","attributeA","0","250","0","0","0","0","23","1","462","0","4","accurate","50pct","50pct","0","0","0","0","0","0"
"011417","14:48:09","108","108","4.0.10.0","3","12","categorization_truth","attributeA","0","250","0","0","0","0","23","1","435","0","8","sure","50pct","50pct","0","0","0","0","0","0"
"011417","14:48:09","108","108","4.0.10.0","3","13","categorization_truth","attributeB","0","250","0","0","0","0","18","1","433","0","4","inaccurate","50pct","50pct","0","0","0","0","0","0"
"011417","14:48:09","108","108","4.0.10.0","3","14","categorization_truth","attributeB","0","250","0","0","0","0","18","1","403","0","1","incorrect","50pct","50pct","0","0","0","0","0","0"
"011417","14:48:09","108","108","4.0.10.0","3","15","categorization_truth","attributeB","0","250","0","0","0","0","18","1","386","0","4","inaccurate","50pct","50pct","0","0","0","0","0","0"
"011417","14:48:09","108","108","4.0.10.0","3","16","categorization_truth","attributeA","0","250","0","0","0","0","23","1","416","0","3","right","50pct","50pct","0","0","0","0","0","0"
"011417","14:48:09","108","108","4.0.10.0","3","17","categorization_truth","attributeA","0","250","0","0","0","0","23","1","416","0","2","confirm","50pct","50pct","1","0","0","0","0","0"
"011417","14:48:09","108","108","4.0.10.0","3","18","categorization_truth","attributeA","0","250","0","0","0","0","23","1","541","0","7","definite","50pct","50pct","0","0","0","0","0","0"
"011417","14:48:09","108","108","4.0.10.0","3","19","categorization_truth","attributeA","0","250","0","0","0","0","23","1","426","0","1","correct","50pct","50pct","0","0","0","0","0","0"
"011417","14:48:09","108","108","4.0.10.0","3","20","categorization_truth","attributeA","0","250","0","0","0","0","23","1","440","0","2","confirm","50pct","50pct","0","0","0","0","0","0"
"011417","14:48:09","108","108","4.0.10.0","3","21","categorization_truth","attributeA","0","250","0","0","0","0","23","1","415","0","8","sure","50pct","50pct","0","0","0","0","0","0"
"011417","14:48:09","108","108","4.0.10.0","3","22","categorization_truth","attributeB","0","250","0","0","0","0","18","1","425","0","8","untrue","50pct","50pct","0","0","0","0","0","0"
"011417","14:48:09","108","108","4.0.10.0","3","23","categorization_truth","attributeB","0","250","0","0","0","0","18","1","390","0","1","incorrect","50pct","50pct","0","0","0","0","0","0"
"011417","14:48:09","108","108","4.0.10.0","3","24","categorization_truth","attributeB","0","250","0","0","0","0","18","1","399","0","3","wrong","50pct","50pct","1","0","0","0","0","0"
"011417","14:48:09","108","108","4.0.10.0","3","25","categorization_truth","attributeA","0","250","0","0","0","0","23","1","457","0","4","accurate","50pct","50pct","0","0","0","0","0","0"
"011417","14:48:09","108","108","4.0.10.0","3","26","categorization_truth","attributeA","0","250","0","0","0","0","23","1","382","0","5","yes","50pct","50pct","0","0","0","0","0","0"
"011417","14:48:09","108","108","4.0.10.0","3","27","categorization_truth","attributeB","0","250","0","0","0","0","18","1","411","0","5","no","50pct","50pct","0","0","0","0","0","0"
"011417","14:48:09","108","108","4.0.10.0","3","28","categorization_truth","attributeA","0","250","0","0","0","0","23","1","468","0","6","valid","50pct","50pct","0","0","0","0","0","0"
"011417","14:48:09","108","108","4.0.10.0","3","29","categorization_truth","attributeA","0","250","0","0","0","0","23","1","457","0","7","definite","50pct","50pct","0","0","0","0","0","0"
"011417","14:48:09","108","108","4.0.10.0","3","30","categorization_truth","attributeA","0","250","0","0","0","0","23","1","437","0","3","right","50pct","50pct","0","0","0","0","0","0"
"011417","14:48:09","108","108","4.0.10.0","3","31","categorization_truth","attributeB","0","250","0","0","0","0","18","1","511","0","2","deny","50pct","50pct","0","0","0","0","0","0"
"011417","14:48:09","108","108","4.0.10.0","3","32","categorization_truth","attributeB","0","250","0","0","0","0","18","1","428","0","6","invalid","50pct","50pct","0","0","0","0","0","0"
"011417","14:48:09","108","108","4.0.10.0","3","33","categorization_truth","attributeA","0","250","0","0","0","0","23","1","432","0","8","sure","50pct","50pct","0","0","0","0","0","0"
"011417","14:48:09","108","108","4.0.10.0","3","34","categorization_truth","attributeA","0","250","0","0","0","0","23","1","476","0","6","valid","50pct","50pct","0","0","0","0","0","0"
"011417","14:48:09","108","108","4.0.10.0","3","35","categorization_truth","attributeA","0","250","0","0","0","0","23","1","484","0","2","confirm","50pct","50pct","0","0","0","0","0","0"
"011417","14:48:09","108","108","4.0.10.0","3","36","categorization_truth","attributeB","0","250","0","0","0","0","18","1","629","0","7","inexact","50pct","50pct","0","0","0","0","0","0"
"011417","14:48:09","108","108","4.0.10.0","3","37","categorization_truth","attributeB","0","250","0","0","0","0","18","1","411","0","7","inexact","50pct","50pct","0","0","0","0","0","0"
"011417","14:48:09","108","108","4.0.10.0","3","38","categorization_truth","attributeA","0","250","0","0","0","0","23","1","471","0","4","accurate","50pct","50pct","0","0","0","0","0","0"
"011417","14:48:09","108","108","4.0.10.0","3","39","categorization_truth","attributeB","0","250","0","0","0","0","18","1","480","0","1","incorrect","50pct","50pct","0","0","0","0","0","0"
"011417","14:48:09","108","108","4.0.10.0","3","40","categorization_truth","attributeB","0","250","0","0","0","0","18","1","509","0","8","untrue","50pct","50pct","0","0","0","0","0","0"
"011417","14:48:09","108","108","4.0.10.0","3","41","categorization_truth","attributeB","0","250","0","0","0","0","18","1","453","0","2","deny","50pct","50pct","0","0","0","0","0","0"
"011417","14:48:09","108","108","4.0.10.0","3","42","categorization_truth","attributeA","0","250","0","0","0","0","23","1","545","0","7","definite","50pct","50pct","1","0","0","0","0","0"
"011417","14:48:09","108","108","4.0.10.0","3","43","categorization_truth","attributeA","0","250","0","0","0","0","23","1","446","0","1","correct","50pct","50pct","0","0","0","0","0","0"
"011417","14:48:09","108","108","4.0.10.0","3","44","categorization_truth","attributeB","0","250","0","0","0","0","18","1","466","0","4","inaccurate","50pct","50pct","0","0","0","0","0","0"
"011417","14:48:09","108","108","4.0.10.0","3","45","categorization_truth","attributeB","0","250","0","0","0","0","18","1","452","0","5","no","50pct","50pct","0","0","0","0","0","0"
"011417","14:48:09","108","108","4.0.10.0","3","46","categorization_truth","attributeB","0","250","0","0","0","0","18","1","496","0","6","invalid","50pct","50pct","0","0","0","0","0","0"
"011417","14:48:09","108","108","4.0.10.0","3","47","categorization_truth","attributeB","0","250","0","0","0","0","18","1","463","0","3","wrong","50pct","50pct","0","0","0","0","0","0"
"011417","14:48:09","108","108","4.0.10.0","3","48","categorization_truth","attributeB","0","250","0","0","0","0","18","1","423","0","5","no","50pct","50pct","0","0","0","0","0","0"
"011417","14:48:09","108","108","4.0.10.0","3","49","categorization_truth","attributeA","0","250","0","0","0","0","23","1","502","0","3","right","50pct","50pct","1","0","0","0","0","0"
"011417","14:48:09","108","108","4.0.10.0","3","50","categorization_truth","attributeB","0","250","0","0","0","0","18","1","441","0","3","wrong","50pct","50pct","0","0","0","0","0","0"
"011417","14:48:09","108","108","4.0.10.0","3","51","categorization_truth","attributeA","0","250","0","0","0","0","23","1","386","0","5","yes","50pct","50pct","0","0","0","0","0","0"
"011417","14:48:09","108","108","4.0.10.0","3","52","categorization_truth","attributeB","0","250","0","0","0","0","18","1","484","0","4","inaccurate","50pct","50pct","0","0","0","0","0","0"
"011417","14:48:09","108","108","4.0.10.0","3","53","categorization_truth","attributeB","0","250","0","0","0","0","18","1","619","0","8","untrue","50pct","50pct","0","0","0","0","0","0"
"011417","14:48:09","108","108","4.0.10.0","3","54","categorization_truth","attributeB","0","250","0","0","0","0","18","1","573","0","1","incorrect","50pct","50pct","0","0","0","0","0","0"
"011417","14:48:09","108","108","4.0.10.0","3","55","categorization_truth","attributeA","0","250","0","0","0","0","23","1","478","0","6","valid","50pct","50pct","0","0","0","0","0","0"
"011417","14:48:09","108","108","4.0.10.0","3","56","categorization_truth","attributeB","0","250","0","0","0","0","18","1","544","0","6","invalid","50pct","50pct","0","0","0","0","0","0"
"011417","14:48:09","108","108","4.0.10.0","3","57","categorization_truth","attributeA","0","250","0","0","0","0","23","1","409","0","3","right","50pct","50pct","0","0","0","0","0","0"
"011417","14:48:09","108","108","4.0.10.0","3","58","categorization_truth","attributeA","0","250","0","0","0","0","23","1","407","0","8","sure","50pct","50pct","0","0","0","0","0","0"
"011417","14:48:09","108","108","4.0.10.0","3","59","categorization_truth","attributeA","0","250","0","0","0","0","23","0","925","0","7","definite","50pct","50pct","0","1","X","75pct","50pct","466"
"011417","14:48:09","108","108","4.0.10.0","3","60","categorization_truth","attributeA","0","250","0","0","0","0","23","1","444","0","2","confirm","50pct","50pct","1","0","0","0","0","0"
"011417","14:48:09","108","108","4.0.10.0","3","61","categorization_truth","attributeA","0","250","0","0","0","0","23","1","399","0","5","yes","50pct","50pct","1","0","0","0","0","0"
"011417","14:48:09","108","108","4.0.10.0","3","62","categorization_truth","attributeB","0","250","0","0","0","0","18","1","442","0","7","inexact","50pct","50pct","0","0","0","0","0","0"
"011417","14:48:09","108","108","4.0.10.0","3","63","categorization_truth","attributeB","0","250","0","0","0","0","18","1","388","0","2","deny","50pct","50pct","0","0","0","0","0","0"
"011417","14:48:09","108","108","4.0.10.0","3","64","categorization_truth","attributeA","0","250","0","0","0","0","23","1","472","0","1","correct","50pct","50pct","0","0","0","0","0","0"
"011417","14:48:09","108","108","4.0.10.0","3","65","categorization_truth","attributeB","0","250","0","0","0","0","18","1","442","0","8","untrue","50pct","50pct","0","0","0","0","0","0"
"011417","14:48:09","108","108","4.0.10.0","3","66","categorization_truth","attributeB","0","250","0","0","0","0","18","1","435","0","4","inaccurate","50pct","50pct","0","0","0","0","0","0"
"011417","14:48:09","108","108","4.0.10.0","3","67","categorization_truth","attributeA","0","250","0","0","0","0","23","1","409","0","4","accurate","50pct","50pct","0","0","0","0","0","0"
"011417","14:48:09","108","108","4.0.10.0","3","68","categorization_truth","attributeB","0","250","0","0","0","0","18","1","447","0","2","deny","50pct","50pct","1","0","0","0","0","0"
"011417","14:48:09","108","108","4.0.10.0","3","69","categorization_truth","attributeA","0","250","0","0","0","0","23","1","428","0","6","valid","50pct","50pct","0","0","0","0","0","0"
"011417","14:48:09","108","108","4.0.10.0","3","70","categorization_truth","attributeB","0","250","0","0","0","0","18","1","436","0","7","inexact","50pct","50pct","0","0","0","0","0","0"
"011417","14:48:09","108","108","4.0.10.0","3","71","categorization_truth","attributeA","0","250","0","0","0","0","23","1","363","0","3","right","50pct","50pct","0","0","0","0","0","0"
"011417","14:48:09","108","108","4.0.10.0","3","72","categorization_truth","attributeB","0","250","0","0","0","0","18","1","412","0","3","wrong","50pct","50pct","0","0","0","0","0","0"
"011417","14:48:09","108","108","4.0.10.0","3","73","categorization_truth","attributeA","0","250","0","0","0","0","23","1","413","0","1","correct","50pct","50pct","0","0","0","0","0","0"
"011417","14:48:09","108","108","4.0.10.0","3","74","categorization_truth","attributeA","0","250","0","0","0","0","23","1","370","0","8","sure","50pct","50pct","0","0","0","0","0","0"
"011417","14:48:09","108","108","4.0.10.0","3","75","categorization_truth","attributeA","0","250","0","0","0","0","23","1","407","0","7","definite","50pct","50pct","0","0","0","0","0","0"
"011417","14:48:09","108","108","4.0.10.0","3","76","categorization_truth","attributeA","0","250","0","0","0","0","23","1","349","0","4","accurate","50pct","50pct","0","0","0","0","0","0"
"011417","14:48:09","108","108","4.0.10.0","3","77","categorization_truth","attributeB","0","250","0","0","0","0","18","1","428","0","1","incorrect","50pct","50pct","0","0","0","0","0","0"
"011417","14:48:09","108","108","4.0.10.0","3","78","categorization_truth","attributeB","0","250","0","0","0","0","18","1","356","0","5","no","50pct","50pct","0","0","0","0","0","0"
"011417","14:48:09","108","108","4.0.10.0","3","79","categorization_truth","attributeB","0","250","0","0","0","0","18","1","359","0","6","invalid","50pct","50pct","0","0","0","0","0","0"
"011417","14:48:09","108","108","4.0.10.0","3","80","categorization_truth","attributeA","0","250","0","0","0","0","23","1","400","0","5","yes","50pct","50pct","0","0","0","0","0","0"
"011417","14:48:09","108","108","4.0.10.0","3","81","categorization_truth","attributeA","0","250","0","0","0","0","23","1","406","0","2","confirm","50pct","50pct","0","0","0","0","0","0"
"011417","12:44:10","107","107","4.0.10.0","1","2","categorization_truth","attributeB","0","250","0","0","0","0","18","1","2272","0","7","inexact","50pct","50pct","0","0","0","0","0","0"
"011417","12:44:10","107","107","4.0.10.0","1","3","categorization_truth","attributeA","0","250","0","0","0","0","23","1","1659","0","8","sure","50pct","50pct","0","0","0","0","0","0"
"011417","12:44:10","107","107","4.0.10.0","1","4","categorization_truth","attributeB","0","250","0","0","0","0","18","0","6443","0","2","deny","50pct","50pct","0","1","X","75pct","50pct","1166"
"011417","12:44:10","107","107","4.0.10.0","1","5","categorization_truth","attributeA","0","250","0","0","0","0","23","1","1292","0","3","right","50pct","50pct","0","0","0","0","0","0"
"011417","12:44:10","107","107","4.0.10.0","1","6","categorization_truth","attributeB","0","250","0","0","0","0","18","1","800","0","3","wrong","50pct","50pct","0","0","0","0","0","0"
"011417","12:44:10","107","107","4.0.10.0","1","7","categorization_truth","attributeB","0","250","0","0","0","0","18","1","667","0","1","incorrect","50pct","50pct","0","0","0","0","0","0"
"011417","12:44:10","107","107","4.0.10.0","1","8","categorization_truth","attributeA","0","250","0","0","0","0","23","1","648","0","2","confirm","50pct","50pct","0","0","0","0","0","0"
"011417","12:44:10","107","107","4.0.10.0","1","9","categorization_truth","attributeB","0","250","0","0","0","0","18","1","1110","0","4","inaccurate","50pct","50pct","0","0","0","0","0","0"
"011417","12:44:10","107","107","4.0.10.0","1","10","categorization_truth","attributeA","0","250","0","0","0","0","23","1","666","0","5","yes","50pct","50pct","0","0","0","0","0","0"
"011417","12:44:10","107","107","4.0.10.0","1","11","categorization_truth","attributeA","0","250","0","0","0","0","23","1","634","0","1","correct","50pct","50pct","0","0","0","0","0","0"
"011417","12:44:10","107","107","4.0.10.0","1","12","categorization_truth","attributeA","0","250","0","0","0","0","23","1","790","0","7","definite","50pct","50pct","0","0","0","0","0","0"
"011417","12:44:10","107","107","4.0.10.0","1","13","categorization_truth","attributeA","0","250","0","0","0","0","23","1","666","0","6","valid","50pct","50pct","0","0","0","0","0","0"
"011417","12:44:10","107","107","4.0.10.0","1","14","categorization_truth","attributeB","0","250","0","0","0","0","18","0","1473","0","8","untrue","50pct","50pct","0","1","X","75pct","50pct","783"
"011417","12:44:10","107","107","4.0.10.0","1","15","categorization_truth","attributeB","0","250","0","0","0","0","18","1","752","0","6","invalid","50pct","50pct","0","0","0","0","0","0"
"011417","12:44:10","107","107","4.0.10.0","1","16","categorization_truth","attributeB","0","250","0","0","0","0","18","1","500","0","5","no","50pct","50pct","0","0","0","0","0","0"
"011417","12:44:10","107","107","4.0.10.0","1","17","categorization_truth","attributeB","0","250","0","0","0","0","18","1","367","0","5","no","50pct","50pct","0","0","0","0","0","0"
"011417","12:44:10","107","107","4.0.10.0","1","18","categorization_truth","attributeB","0","250","0","0","0","0","18","1","592","0","1","incorrect","50pct","50pct","0","0","0","0","0","0"
"011417","12:44:10","107","107","4.0.10.0","1","19","categorization_truth","attributeA","0","250","0","0","0","0","23","1","673","0","4","accurate","50pct","50pct","0","0","0","0","0","0"
"011417","12:44:10","107","107","4.0.10.0","1","20","categorization_truth","attributeA","0","250","0","0","0","0","23","1","806","0","6","valid","50pct","50pct","0","0","0","0","0","0"
"011417","12:44:10","107","107","4.0.10.0","1","21","categorization_truth","attributeA","0","250","0","0","0","0","23","1","910","0","7","definite","50pct","50pct","0","0","0","0","0","0"
"011417","12:44:10","107","107","4.0.10.0","1","22","categorization_truth","attributeA","0","250","0","0","0","0","23","1","520","0","3","right","50pct","50pct","0","0","0","0","0","0"
"011417","12:44:10","107","107","4.0.10.0","1","23","categorization_truth","attributeA","0","250","0","0","0","0","23","1","695","0","2","confirm","50pct","50pct","0","0","0","0","0","0"
"011417","12:44:10","107","107","4.0.10.0","1","24","categorization_truth","attributeB","0","250","0","0","0","0","18","1","536","0","4","inaccurate","50pct","50pct","0","0","0","0","0","0"
"011417","12:44:10","107","107","4.0.10.0","1","25","categorization_truth","attributeA","0","250","0","0","0","0","23","1","488","0","5","yes","50pct","50pct","0","0","0","0","0","0"
"011417","12:44:10","107","107","4.0.10.0","1","26","categorization_truth","attributeA","0","250","0","0","0","0","23","1","988","0","4","accurate","50pct","50pct","0","0","0","0","0","0"
"011417","12:44:10","107","107","4.0.10.0","1","27","categorization_truth","attributeA","0","250","0","0","0","0","23","1","592","0","8","sure","50pct","50pct","0","0","0","0","0","0"
"011417","12:44:10","107","107","4.0.10.0","1","28","categorization_truth","attributeB","0","250","0","0","0","0","18","1","682","0","3","wrong","50pct","50pct","0","0","0","0","0","0"
"011417","12:44:10","107","107","4.0.10.0","1","29","categorization_truth","attributeB","0","250","0","0","0","0","18","1","938","0","2","deny","50pct","50pct","0","0","0","0","0","0"
"011417","12:44:10","107","107","4.0.10.0","1","30","categorization_truth","attributeB","0","250","0","0","0","0","18","1","1751","0","8","untrue","50pct","50pct","0","0","0","0","0","0"
"011417","12:44:10","107","107","4.0.10.0","1","31","categorization_truth","attributeA","0","250","0","0","0","0","23","1","594","0","1","correct","50pct","50pct","0","0","0","0","0","0"
"011417","12:44:10","107","107","4.0.10.0","1","32","categorization_truth","attributeA","0","250","0","0","0","0","23","1","492","0","1","correct","50pct","50pct","0","0","0","0","0","0"
"011417","12:44:10","107","107","4.0.10.0","1","33","categorization_truth","attributeB","0","250","0","0","0","0","18","1","1035","0","7","inexact","50pct","50pct","0","0","0","0","0","0"
"011417","12:44:10","107","107","4.0.10.0","1","34","categorization_truth","attributeA","0","250","0","0","0","0","23","1","430","0","2","confirm","50pct","50pct","0","0","0","0","0","0"
"011417","12:44:10","107","107","4.0.10.0","1","35","categorization_truth","attributeB","0","250","0","0","0","0","18","1","1137","0","6","invalid","50pct","50pct","0","0","0","0","0","0"
"011417","12:44:10","107","107","4.0.10.0","1","36","categorization_truth","attributeA","0","250","0","0","0","0","23","1","567","0","4","accurate","50pct","50pct","0","0","0","0","0","0"
"011417","12:44:10","107","107","4.0.10.0","1","37","categorization_truth","attributeA","0","250","0","0","0","0","23","1","583","0","5","yes","50pct","50pct","0","0","0","0","0","0"
"011417","12:44:10","107","107","4.0.10.0","1","38","categorization_truth","attributeB","0","250","0","0","0","0","18","1","532","0","1","incorrect","50pct","50pct","0","0","0","0","0","0"
"011417","12:44:10","107","107","4.0.10.0","1","39","categorization_truth","attributeA","0","250","0","0","0","0","23","1","612","0","8","sure","50pct","50pct","0","0","0","0","0","0"
"011417","12:44:10","107","107","4.0.10.0","1","40","categorization_truth","attributeA","0","250","0","0","0","0","23","1","965","0","3","right","50pct","50pct","0","0","0","0","0","0"
"011417","12:44:10","107","107","4.0.10.0","1","41","categorization_truth","attributeA","0","250","0","0","0","0","23","1","1294","0","6","valid","50pct","50pct","0","0","0","0","0","0"
"011417","12:44:10","107","107","4.0.10.0","1","42","categorization_truth","attributeB","0","250","0","0","0","0","18","1","1476","0","4","inaccurate","50pct","50pct","0","0","0","0","0","0"
"011417","12:44:10","107","107","4.0.10.0","1","43","categorization_truth","attributeB","0","250","0","0","0","0","18","0","1271","0","3","wrong","50pct","50pct","0","1","X","75pct","50pct","616"
"011417","12:44:10","107","107","4.0.10.0","1","44","categorization_truth","attributeB","0","250","0","0","0","0","18","0","916","0","7","inexact","50pct","50pct","0","1","X","75pct","50pct","533"
"011417","12:44:10","107","107","4.0.10.0","1","45","categorization_truth","attributeA","0","250","0","0","0","0","23","0","786","0","7","definite","50pct","50pct","0","1","X","75pct","50pct","483"
"011417","12:44:10","107","107","4.0.10.0","1","46","categorization_truth","attributeB","0","250","0","0","0","0","18","1","594","0","5","no","50pct","50pct","0","0","0","0","0","0"
"011417","12:44:10","107","107","4.0.10.0","1","47","categorization_truth","attributeA","0","250","0","0","0","0","23","0","1524","0","7","definite","50pct","50pct","0","1","X","75pct","50pct","1166"
"011417","12:44:10","107","107","4.0.10.0","1","48","categorization_truth","attributeA","0","250","0","0","0","0","23","1","798","0","6","valid","50pct","50pct","0","0","0","0","0","0"
"011417","12:44:10","107","107","4.0.10.0","1","49","categorization_truth","attributeB","0","250","0","0","0","0","18","0","1104","0","6","invalid","50pct","50pct","0","1","X","75pct","50pct","733"
"011417","12:44:10","107","107","4.0.10.0","1","50","categorization_truth","attributeB","0","250","0","0","0","0","18","1","576","0","8","untrue","50pct","50pct","0","0","0","0","0","0"
"011417","12:44:10","107","107","4.0.10.0","1","51","categorization_truth","attributeA","0","250","0","0","0","0","23","1","604","0","4","accurate","50pct","50pct","0","0","0","0","0","0"
"011417","12:44:10","107","107","4.0.10.0","1","52","categorization_truth","attributeB","0","250","0","0","0","0","18","1","1341","0","2","deny","50pct","50pct","0","0","0","0","0","0"
"011417","12:44:10","107","107","4.0.10.0","1","53","categorization_truth","attributeA","0","250","0","0","0","0","23","1","527","0","5","yes","50pct","50pct","0","0","0","0","0","0"
"011417","12:44:10","107","107","4.0.10.0","1","54","categorization_truth","attributeB","0","250","0","0","0","0","18","1","3186","0","4","inaccurate","50pct","50pct","0","0","0","0","0","0"
"011417","12:44:10","107","107","4.0.10.0","1","55","categorization_truth","attributeA","0","250","0","0","0","0","23","1","523","0","2","confirm","50pct","50pct","0","0","0","0","0","0"
"011417","12:44:10","107","107","4.0.10.0","1","56","categorization_truth","attributeA","0","250","0","0","0","0","23","1","1870","0","8","sure","50pct","50pct","0","0","0","0","0","0"
"011417","12:44:10","107","107","4.0.10.0","1","57","categorization_truth","attributeB","0","250","0","0","0","0","18","1","612","0","1","incorrect","50pct","50pct","0","0","0","0","0","0"
"011417","12:44:10","107","107","4.0.10.0","1","58","categorization_truth","attributeB","0","250","0","0","0","0","18","1","1675","0","8","untrue","50pct","50pct","0","0","0","0","0","0"
"011417","12:44:10","107","107","4.0.10.0","1","59","categorization_truth","attributeB","0","250","0","0","0","0","18","1","1011","0","3","wrong","50pct","50pct","0","0","0","0","0","0"
"011417","12:44:10","107","107","4.0.10.0","1","60","categorization_truth","attributeA","0","250","0","0","0","0","23","1","585","0","3","right","50pct","50pct","0","0","0","0","0","0"
"011417","12:44:10","107","107","4.0.10.0","1","61","categorization_truth","attributeA","0","250","0","0","0","0","23","1","2988","0","1","correct","50pct","50pct","0","0","0","0","0","0"
"011417","12:44:10","107","107","4.0.10.0","1","62","categorization_truth","attributeB","0","250","0","0","0","0","18","1","554","0","6","invalid","50pct","50pct","0","0","0","0","0","0"
"011417","12:44:10","107","107","4.0.10.0","1","63","categorization_truth","attributeB","0","250","0","0","0","0","18","1","565","0","7","inexact","50pct","50pct","0","0","0","0","0","0"
"011417","12:44:10","107","107","4.0.10.0","1","64","categorization_truth","attributeA","0","250","0","0","0","0","23","1","895","0","1","correct","50pct","50pct","0","0","0","0","0","0"
"011417","12:44:10","107","107","4.0.10.0","1","65","categorization_truth","attributeB","0","250","0","0","0","0","18","1","580","0","5","no","50pct","50pct","0","0","0","0","0","0"
"011417","12:44:10","107","107","4.0.10.0","1","66","categorization_truth","attributeB","0","250","0","0","0","0","18","1","3406","0","2","deny","50pct","50pct","0","0","0","0","0","0"
"011417","12:44:10","107","107","4.0.10.0","1","67","categorization_truth","attributeB","0","250","0","0","0","0","18","1","563","0","1","incorrect","50pct","50pct","0","0","0","0","0","0"
"011417","12:44:10","107","107","4.0.10.0","1","68","categorization_truth","attributeB","0","250","0","0","0","0","18","1","832","0","2","deny","50pct","50pct","0","0","0","0","0","0"
"011417","12:44:10","107","107","4.0.10.0","1","69","categorization_truth","attributeB","0","250","0","0","0","0","18","1","669","0","8","untrue","50pct","50pct","0","0","0","0","0","0"
"011417","12:44:10","107","107","4.0.10.0","1","70","categorization_truth","attributeA","0","250","0","0","0","0","23","1","681","0","6","valid","50pct","50pct","0","0","0","0","0","0"
"011417","12:44:10","107","107","4.0.10.0","1","71","categorization_truth","attributeB","0","250","0","0","0","0","18","1","654","0","4","inaccurate","50pct","50pct","0","0","0","0","0","0"
"011417","12:44:10","107","107","4.0.10.0","1","72","categorization_truth","attributeB","0","250","0","0","0","0","18","1","513","0","5","no","50pct","50pct","0","0","0","0","0","0"
"011417","12:44:10","107","107","4.0.10.0","1","73","categorization_truth","attributeA","0","250","0","0","0","0","23","1","800","0","8","sure","50pct","50pct","0","0","0","0","0","0"
"011417","12:44:10","107","107","4.0.10.0","1","74","categorization_truth","attributeA","0","250","0","0","0","0","23","1","1068","0","5","yes","50pct","50pct","0","0","0","0","0","0"
"011417","12:44:10","107","107","4.0.10.0","1","75","categorization_truth","attributeA","0","250","0","0","0","0","23","1","847","0","2","confirm","50pct","50pct","0","0","0","0","0","0"
"011417","12:44:10","107","107","4.0.10.0","1","76","categorization_truth","attributeB","0","250","0","0","0","0","18","1","651","0","3","wrong","50pct","50pct","0","0","0","0","0","0"
"011417","12:44:10","107","107","4.0.10.0","1","77","categorization_truth","attributeA","0","250","0","0","0","0","23","1","1732","0","4","accurate","50pct","50pct","0","0","0","0","0","0"
"011417","12:44:10","107","107","4.0.10.0","1","78","categorization_truth","attributeB","0","250","0","0","0","0","18","0","1653","0","6","invalid","50pct","50pct","0","1","X","75pct","50pct","1149"
"011417","12:44:10","107","107","4.0.10.0","1","79","categorization_truth","attributeA","0","250","0","0","0","0","23","0","1224","0","7","definite","50pct","50pct","0","1","X","75pct","50pct","683"
"011417","12:44:10","107","107","4.0.10.0","1","80","categorization_truth","attributeB","0","250","0","0","0","0","18","0","984","0","7","inexact","50pct","50pct","0","1","X","75pct","50pct","616"
"011417","12:44:10","107","107","4.0.10.0","1","81","categorization_truth","attributeA","0","250","0","0","0","0","23","1","843","0","3","right","50pct","50pct","0","0","0","0","0","0"
"011417","12:44:10","107","107","4.0.10.0","2","2","categorization_truth","attributeB","0","250","0","0","0","0","18","1","899","0","3","wrong","50pct","50pct","0","0","0","0","0","0"
"011417","12:44:10","107","107","4.0.10.0","2","3","categorization_truth","attributeB","0","250","0","0","0","0","18","1","676","0","4","inaccurate","50pct","50pct","0","0","0","0","0","0"
"011417","12:44:10","107","107","4.0.10.0","2","4","categorization_truth","attributeA","0","250","0","0","0","0","23","1","488","0","5","yes","50pct","50pct","0","0","0","0","0","0"
"011417","12:44:10","107","107","4.0.10.0","2","5","categorization_truth","attributeA","0","250","0","0","0","0","23","1","818","0","4","accurate","50pct","50pct","0","0","0","0","0","0"
"011417","12:44:10","107","107","4.0.10.0","2","6","categorization_truth","attributeA","0","250","0","0","0","0","23","1","524","0","8","sure","50pct","50pct","0","0","0","0","0","0"
"011417","12:44:10","107","107","4.0.10.0","2","7","categorization_truth","attributeA","0","250","0","0","0","0","23","1","438","0","2","confirm","50pct","50pct","0","0","0","0","0","0"
"011417","12:44:10","107","107","4.0.10.0","2","8","categorization_truth","attributeA","0","250","0","0","0","0","23","0","766","0","6","valid","50pct","50pct","0","1","X","75pct","50pct","449"
"011417","12:44:10","107","107","4.0.10.0","2","9","categorization_truth","attributeA","0","250","0","0","0","0","23","1","457","0","3","right","50pct","50pct","0","0","0","0","0","0"
"011417","12:44:10","107","107","4.0.10.0","2","10","categorization_truth","attributeB","0","250","0","0","0","0","18","1","508","0","8","untrue","50pct","50pct","0","0","0","0","0","0"
"011417","12:44:10","107","107","4.0.10.0","2","11","categorization_truth","attributeA","0","250","0","0","0","0","23","0","921","0","7","definite","50pct","50pct","0","1","X","75pct","50pct","616"
"011417","12:44:10","107","107","4.0.10.0","2","12","categorization_truth","attributeA","0","250","0","0","0","0","23","1","703","0","1","correct","50pct","50pct","0","0","0","0","0","0"
"011417","12:44:10","107","107","4.0.10.0","2","13","categorization_truth","attributeB","0","250","0","0","0","0","18","1","913","0","5","no","50pct","50pct","0","0","0","0","0","0"
"011417","12:44:10","107","107","4.0.10.0","2","14","categorization_truth","attributeB","0","250","0","0","0","0","18","0","1200","0","7","inexact","50pct","50pct","0","1","X","75pct","50pct","800"
"011417","12:44:10","107","107","4.0.10.0","2","15","categorization_truth","attributeA","0","250","0","0","0","0","23","1","581","0","8","sure","50pct","50pct","0","0","0","0","0","0"
"011417","12:44:10","107","107","4.0.10.0","2","16","categorization_truth","attributeA","0","250","0","0","0","0","23","1","715","0","5","yes","50pct","50pct","0","0","0","0","0","0"
"011417","12:44:10","107","107","4.0.10.0","2","17","categorization_truth","attributeB","0","250","0","0","0","0","18","1","538","0","2","deny","50pct","50pct","0","0","0","0","0","0"
"011417","12:44:10","107","107","4.0.10.0","2","18","categorization_truth","attributeB","0","250","0","0","0","0","18","1","604","0","1","incorrect","50pct","50pct","0","0","0","0","0","0"
"011417","12:44:10","107","107","4.0.10.0","2","19","categorization_truth","attributeA","0","250","0","0","0","0","23","1","690","0","2","confirm","50pct","50pct","0","0","0","0","0","0"
"011417","12:44:10","107","107","4.0.10.0","2","20","categorization_truth","attributeB","0","250","0","0","0","0","18","0","1268","0","6","invalid","50pct","50pct","0","1","X","75pct","50pct","866"
"011417","12:44:10","107","107","4.0.10.0","2","21","categorization_truth","attributeB","0","250","0","0","0","0","18","1","649","0","2","deny","50pct","50pct","0","0","0","0","0","0"
"011417","12:44:10","107","107","4.0.10.0","2","22","categorization_truth","attributeB","0","250","0","0","0","0","18","0","1426","0","1","incorrect","50pct","50pct","0","1","X","75pct","50pct","833"
"011417","12:44:10","107","107","4.0.10.0","2","23","categorization_truth","attributeA","0","250","0","0","0","0","23","1","649","0","1","correct","50pct","50pct","0","0","0","0","0","0"
"011417","12:44:10","107","107","4.0.10.0","2","24","categorization_truth","attributeA","0","250","0","0","0","0","23","1","868","0","6","valid","50pct","50pct","0","0","0","0","0","0"
"011417","12:44:10","107","107","4.0.10.0","2","25","categorization_truth","attributeA","0","250","0","0","0","0","23","1","904","0","3","right","50pct","50pct","0","0","0","0","0","0"
"011417","12:44:10","107","107","4.0.10.0","2","26","categorization_truth","attributeA","0","250","0","0","0","0","23","1","664","0","7","definite","50pct","50pct","0","0","0","0","0","0"
"011417","12:44:10","107","107","4.0.10.0","2","27","categorization_truth","attributeB","0","250","0","0","0","0","18","1","1054","0","4","inaccurate","50pct","50pct","0","0","0","0","0","0"
"011417","12:44:10","107","107","4.0.10.0","2","28","categorization_truth","attributeB","0","250","0","0","0","0","18","1","1033","0","3","wrong","50pct","50pct","0","0","0","0","0","0"
"011417","12:44:10","107","107","4.0.10.0","2","29","categorization_truth","attributeA","0","250","0","0","0","0","23","1","583","0","4","accurate","50pct","50pct","0","0","0","0","0","0"
"011417","12:44:10","107","107","4.0.10.0","2","30","categorization_truth","attributeA","0","250","0","0","0","0","23","1","627","0","4","accurate","50pct","50pct","0","0","0","0","0","0"
"011417","12:44:10","107","107","4.0.10.0","2","31","categorization_truth","attributeB","0","250","0","0","0","0","18","1","750","0","5","no","50pct","50pct","0","0","0","0","0","0"
"011417","12:44:10","107","107","4.0.10.0","2","32","categorization_truth","attributeB","0","250","0","0","0","0","18","0","1477","0","6","invalid","50pct","50pct","0","1","X","75pct","50pct","1083"
"011417","12:44:10","107","107","4.0.10.0","2","33","categorization_truth","attributeB","0","250","0","0","0","0","18","1","1687","0","7","inexact","50pct","50pct","0","0","0","0","0","0"
"011417","12:44:10","107","107","4.0.10.0","2","34","categorization_truth","attributeB","0","250","0","0","0","0","18","0","1233","0","8","untrue","50pct","50pct","0","1","X","75pct","50pct","766"
"011417","12:44:10","107","107","4.0.10.0","2","35","categorization_truth","attributeB","0","250","0","0","0","0","18","1","640","0","5","no","50pct","50pct","0","0","0","0","0","0"
"011417","12:44:10","107","107","4.0.10.0","2","36","categorization_truth","attributeB","0","250","0","0","0","0","18","1","949","0","6","invalid","50pct","50pct","0","0","0","0","0","0"
"011417","12:44:10","107","107","4.0.10.0","2","37","categorization_truth","attributeB","0","250","0","0","0","0","18","1","1644","0","8","untrue","50pct","50pct","0","0","0","0","0","0"
"011417","12:44:10","107","107","4.0.10.0","2","38","categorization_truth","attributeB","0","250","0","0","0","0","18","0","1038","0","1","incorrect","50pct","50pct","0","1","X","75pct","50pct","533"
"011417","12:44:10","107","107","4.0.10.0","2","39","categorization_truth","attributeA","0","250","0","0","0","0","23","1","752","0","2","confirm","50pct","50pct","0","0","0","0","0","0"
"011417","12:44:10","107","107","4.0.10.0","2","40","categorization_truth","attributeB","0","250","0","0","0","0","18","1","661","0","4","inaccurate","50pct","50pct","0","0","0","0","0","0"
"011417","12:44:10","107","107","4.0.10.0","2","41","categorization_truth","attributeA","0","250","0","0","0","0","23","1","902","0","3","right","50pct","50pct","0","0","0","0","0","0"
"011417","12:44:10","107","107","4.0.10.0","2","42","categorization_truth","attributeB","0","250","0","0","0","0","18","1","2310","0","7","inexact","50pct","50pct","0","0","0","0","0","0"
"011417","12:44:10","107","107","4.0.10.0","2","43","categorization_truth","attributeB","0","250","0","0","0","0","18","1","1445","0","2","deny","50pct","50pct","0","0","0","0","0","0"
"011417","12:44:10","107","107","4.0.10.0","2","44","categorization_truth","attributeB","0","250","0","0","0","0","18","1","897","0","3","wrong","50pct","50pct","0","0","0","0","0","0"
"011417","12:44:10","107","107","4.0.10.0","2","45","categorization_truth","attributeA","0","250","0","0","0","0","23","1","787","0","1","correct","50pct","50pct","0","0","0","0","0","0"
"011417","12:44:10","107","107","4.0.10.0","2","46","categorization_truth","attributeA","0","250","0","0","0","0","23","1","1091","0","5","yes","50pct","50pct","0","0","0","0","0","0"
"011417","12:44:10","107","107","4.0.10.0","2","47","categorization_truth","attributeB","0","250","0","0","0","0","18","0","1023","0","5","no","50pct","50pct","0","1","X","75pct","50pct","650"
"011417","12:44:10","107","107","4.0.10.0","2","48","categorization_truth","attributeA","0","250","0","0","0","0","23","1","649","0","6","valid","50pct","50pct","0","0","0","0","0","0"
"011417","12:44:10","107","107","4.0.10.0","2","49","categorization_truth","attributeA","0","250","0","0","0","0","23","1","1425","0","8","sure","50pct","50pct","0","0","0","0","0","0"
"011417","12:44:10","107","107","4.0.10.0","2","50","categorization_truth","attributeB","0","250","0","0","0","0","18","1","650","0","2","deny","50pct","50pct","0","0","0","0","0","0"
"011417","12:44:10","107","107","4.0.10.0","2","51","categorization_truth","attributeA","0","250","0","0","0","0","23","0","1869","0","7","definite","50pct","50pct","0","1","X","75pct","50pct","1499"
"011417","12:44:10","107","107","4.0.10.0","2","52","categorization_truth","attributeA","0","250","0","0","0","0","23","1","478","0","8","sure","50pct","50pct","0","0","0","0","0","0"
"011417","12:44:10","107","107","4.0.10.0","2","53","categorization_truth","attributeA","0","250","0","0","0","0","23","1","566","0","7","definite","50pct","50pct","0","0","0","0","0","0"
"011417","12:44:10","107","107","4.0.10.0","2","54","categorization_truth","attributeB","0","250","0","0","0","0","18","1","593","0","1","incorrect","50pct","50pct","0","0","0","0","0","0"
"011417","12:44:10","107","107","4.0.10.0","2","55","categorization_truth","attributeA","0","250","0","0","0","0","23","1","692","0","4","accurate","50pct","50pct","0","0","0","0","0","0"
"011417","12:44:10","107","107","4.0.10.0","2","56","categorization_truth","attributeB","0","250","0","0","0","0","18","1","715","0","8","untrue","50pct","50pct","0","0","0","0","0","0"
"011417","12:44:10","107","107","4.0.10.0","2","57","categorization_truth","attributeA","0","250","0","0","0","0","23","1","584","0","5","yes","50pct","50pct","0","0","0","0","0","0"
"011417","12:44:10","107","107","4.0.10.0","2","58","categorization_truth","attributeB","0","250","0","0","0","0","18","1","854","0","3","wrong","50pct","50pct","0","0","0","0","0","0"
"011417","12:44:10","107","107","4.0.10.0","2","59","categorization_truth","attributeA","0","250","0","0","0","0","23","1","559","0","6","valid","50pct","50pct","0","0","0","0","0","0"
"011417","12:44:10","107","107","4.0.10.0","2","60","categorization_truth","attributeA","0","250","0","0","0","0","23","1","593","0","1","correct","50pct","50pct","0","0","0","0","0","0"
"011417","12:44:10","107","107","4.0.10.0","2","61","categorization_truth","attributeB","0","250","0","0","0","0","18","1","4144","0","6","invalid","50pct","50pct","0","0","0","0","0","0"
"011417","12:44:10","107","107","4.0.10.0","2","62","categorization_truth","attributeA","0","250","0","0","0","0","23","1","470","0","2","confirm","50pct","50pct","0","0","0","0","0","0"
"011417","12:44:10","107","107","4.0.10.0","2","63","categorization_truth","attributeA","0","250","0","0","0","0","23","1","1213","0","3","right","50pct","50pct","0","0","0","0","0","0"
"011417","12:44:10","107","107","4.0.10.0","2","64","categorization_truth","attributeB","0","250","0","0","0","0","18","1","823","0","7","inexact","50pct","50pct","0","0","0","0","0","0"
"011417","12:44:10","107","107","4.0.10.0","2","65","categorization_truth","attributeA","0","250","0","0","0","0","23","1","2192","0","7","definite","50pct","50pct","0","0","0","0","0","0"
"011417","12:44:10","107","107","4.0.10.0","2","66","categorization_truth","attributeB","0","250","0","0","0","0","18","1","576","0","4","inaccurate","50pct","50pct","0","0","0","0","0","0"
"011417","12:44:10","107","107","4.0.10.0","2","67","categorization_truth","attributeB","0","250","0","0","0","0","18","1","732","0","7","inexact","50pct","50pct","0","0","0","0","0","0"
"011417","12:44:10","107","107","4.0.10.0","2","68","categorization_truth","attributeA","0","250","0","0","0","0","23","1","614","0","1","correct","50pct","50pct","0","0","0","0","0","0"
"011417","12:44:10","107","107","4.0.10.0","2","69","categorization_truth","attributeA","0","250","0","0","0","0","23","1","760","0","8","sure","50pct","50pct","0","0","0","0","0","0"
"011417","12:44:10","107","107","4.0.10.0","2","70","categorization_truth","attributeA","0","250","0","0","0","0","23","1","691","0","2","confirm","50pct","50pct","0","0","0","0","0","0"
"011417","12:44:10","107","107","4.0.10.0","2","71","categorization_truth","attributeB","0","250","0","0","0","0","18","1","665","0","8","untrue","50pct","50pct","0","0","0","0","0","0"
"011417","12:44:10","107","107","4.0.10.0","2","72","categorization_truth","attributeB","0","250","0","0","0","0","18","0","882","0","6","invalid","50pct","50pct","0","1","X","75pct","50pct","549"
"011417","12:44:10","107","107","4.0.10.0","2","73","categorization_truth","attributeB","0","250","0","0","0","0","18","1","684","0","4","inaccurate","50pct","50pct","0","0","0","0","0","0"
"011417","12:44:10","107","107","4.0.10.0","2","74","categorization_truth","attributeA","0","250","0","0","0","0","23","0","804","0","5","yes","50pct","50pct","0","1","X","75pct","50pct","483"
"011417","12:44:10","107","107","4.0.10.0","2","75","categorization_truth","attributeB","0","250","0","0","0","0","18","1","688","0","1","incorrect","50pct","50pct","0","0","0","0","0","0"
"011417","12:44:10","107","107","4.0.10.0","2","76","categorization_truth","attributeB","0","250","0","0","0","0","18","1","675","0","5","no","50pct","50pct","0","0","0","0","0","0"
"011417","12:44:10","107","107","4.0.10.0","2","77","categorization_truth","attributeA","0","250","0","0","0","0","23","1","489","0","3","right","50pct","50pct","0","0","0","0","0","0"
"011417","12:44:10","107","107","4.0.10.0","2","78","categorization_truth","attributeA","0","250","0","0","0","0","23","1","833","0","6","valid","50pct","50pct","0","0","0","0","0","0"
"011417","12:44:10","107","107","4.0.10.0","2","79","categorization_truth","attributeB","0","250","0","0","0","0","18","0","2074","0","2","deny","50pct","50pct","0","1","X","75pct","50pct","1733"
"011417","12:44:10","107","107","4.0.10.0","2","80","categorization_truth","attributeA","0","250","0","0","0","0","23","1","883","0","4","accurate","50pct","50pct","0","0","0","0","0","0"
"011417","12:44:10","107","107","4.0.10.0","2","81","categorization_truth","attributeB","0","250","0","0","0","0","18","1","1696","0","3","wrong","50pct","50pct","0","0","0","0","0","0"
"011417","12:44:10","107","107","4.0.10.0","3","2","categorization_truth","attributeA","0","250","0","0","0","0","23","1","794","0","7","definite","50pct","50pct","0","0","0","0","0","0"
"011417","12:44:10","107","107","4.0.10.0","3","3","categorization_truth","attributeB","0","250","0","0","0","0","18","1","606","0","6","invalid","50pct","50pct","0","0","0","0","0","0"
"011417","12:44:10","107","107","4.0.10.0","3","4","categorization_truth","attributeA","0","250","0","0","0","0","23","1","486","0","1","correct","50pct","50pct","0","0","0","0","0","0"
"011417","12:44:10","107","107","4.0.10.0","3","5","categorization_truth","attributeB","0","250","0","0","0","0","18","1","904","0","7","inexact","50pct","50pct","0","0","0","0","0","0"
"011417","12:44:10","107","107","4.0.10.0","3","6","categorization_truth","attributeB","0","250","0","0","0","0","18","1","827","0","5","no","50pct","50pct","0","0","0","0","0","0"
"011417","12:44:10","107","107","4.0.10.0","3","7","categorization_truth","attributeB","0","250","0","0","0","0","18","1","624","0","2","deny","50pct","50pct","0","0","0","0","0","0"
"011417","12:44:10","107","107","4.0.10.0","3","8","categorization_truth","attributeB","0","250","0","0","0","0","18","1","668","0","4","inaccurate","50pct","50pct","0","0","0","0","0","0"
"011417","12:44:10","107","107","4.0.10.0","3","9","categorization_truth","attributeB","0","250","0","0","0","0","18","1","521","0","1","incorrect","50pct","50pct","0","0","0","0","0","0"
"011417","12:44:10","107","107","4.0.10.0","3","10","categorization_truth","attributeB","0","250","0","0","0","0","18","0","1120","0","8","untrue","50pct","50pct","0","1","X","75pct","50pct","683"
"011417","12:44:10","107","107","4.0.10.0","3","11","categorization_truth","attributeB","0","250","0","0","0","0","18","1","2529","0","3","wrong","50pct","50pct","0","0","0","0","0","0"
"011417","12:44:10","107","107","4.0.10.0","3","12","categorization_truth","attributeA","0","250","0","0","0","0","23","1","812","0","4","accurate","50pct","50pct","0","0","0","0","0","0"
"011417","12:44:10","107","107","4.0.10.0","3","13","categorization_truth","attributeB","0","250","0","0","0","0","18","1","707","0","8","untrue","50pct","50pct","0","0","0","0","0","0"
"011417","12:44:10","107","107","4.0.10.0","3","14","categorization_truth","attributeB","0","250","0","0","0","0","18","1","825","0","7","inexact","50pct","50pct","0","0","0","0","0","0"
"011417","12:44:10","107","107","4.0.10.0","3","15","categorization_truth","attributeB","0","250","0","0","0","0","18","1","516","0","1","incorrect","50pct","50pct","0","0","0","0","0","0"
"011417","12:44:10","107","107","4.0.10.0","3","16","categorization_truth","attributeB","0","250","0","0","0","0","18","1","593","0","4","inaccurate","50pct","50pct","0","0","0","0","0","0"
"011417","12:44:10","107","107","4.0.10.0","3","17","categorization_truth","attributeB","0","250","0","0","0","0","18","0","1219","0","5","no","50pct","50pct","0","1","X","75pct","50pct","816"
"011417","12:44:10","107","107","4.0.10.0","3","18","categorization_truth","attributeA","0","250","0","0","0","0","23","1","747","0","6","valid","50pct","50pct","0","0","0","0","0","0"
"011417","12:44:10","107","107","4.0.10.0","3","19","categorization_truth","attributeB","0","250","0","0","0","0","18","0","2175","0","6","invalid","50pct","50pct","0","1","X","75pct","50pct","1866"
"011417","12:44:10","107","107","4.0.10.0","3","20","categorization_truth","attributeB","0","250","0","0","0","0","18","1","1762","0","2","deny","50pct","50pct","0","0","0","0","0","0"
"011417","12:44:10","107","107","4.0.10.0","3","21","categorization_truth","attributeA","0","250","0","0","0","0","23","1","586","0","3","right","50pct","50pct","0","0","0","0","0","0"
"011417","12:44:10","107","107","4.0.10.0","3","22","categorization_truth","attributeA","0","250","0","0","0","0","23","1","656","0","5","yes","50pct","50pct","0","0","0","0","0","0"
"011417","12:44:10","107","107","4.0.10.0","3","23","categorization_truth","attributeA","0","250","0","0","0","0","23","1","417","0","2","confirm","50pct","50pct","0","0","0","0","0","0"
"011417","12:44:10","107","107","4.0.10.0","3","24","categorization_truth","attributeA","0","250","0","0","0","0","23","1","488","0","8","sure","50pct","50pct","0","0","0","0","0","0"
"011417","12:44:10","107","107","4.0.10.0","3","25","categorization_truth","attributeA","0","250","0","0","0","0","23","0","900","0","7","definite","50pct","50pct","0","1","X","75pct","50pct","466"
"011417","12:44:10","107","107","4.0.10.0","3","26","categorization_truth","attributeA","0","250","0","0","0","0","23","1","490","0","8","sure","50pct","50pct","0","0","0","0","0","0"
"011417","12:44:10","107","107","4.0.10.0","3","27","categorization_truth","attributeA","0","250","0","0","0","0","23","0","986","0","4","accurate","50pct","50pct","0","1","X","75pct","50pct","616"
"011417","12:44:10","107","107","4.0.10.0","3","28","categorization_truth","attributeA","0","250","0","0","0","0","23","0","895","0","6","valid","50pct","50pct","0","1","X","75pct","50pct","533"
"011417","12:44:10","107","107","4.0.10.0","3","29","categorization_truth","attributeB","0","250","0","0","0","0","18","1","542","0","3","wrong","50pct","50pct","0","0","0","0","0","0"
"011417","12:44:10","107","107","4.0.10.0","3","30","categorization_truth","attributeB","0","250","0","0","0","0","18","1","1089","0","2","deny","50pct","50pct","0","0","0","0","0","0"
"011417","12:44:10","107","107","4.0.10.0","3","31","categorization_truth","attributeB","0","250","0","0","0","0","18","1","1282","0","8","untrue","50pct","50pct","0","0","0","0","0","0"
"011417","12:44:10","107","107","4.0.10.0","3","32","categorization_truth","attributeB","0","250","0","0","0","0","18","1","938","0","3","wrong","50pct","50pct","0","0","0","0","0","0"
"011417","12:44:10","107","107","4.0.10.0","3","33","categorization_truth","attributeA","0","250","0","0","0","0","23","1","587","0","2","confirm","50pct","50pct","0","0","0","0","0","0"
"011417","12:44:10","107","107","4.0.10.0","3","34","categorization_truth","attributeB","0","250","0","0","0","0","18","1","1034","0","7","inexact","50pct","50pct","0","0","0","0","0","0"
"011417","12:44:10","107","107","4.0.10.0","3","35","categorization_truth","attributeA","0","250","0","0","0","0","23","1","510","0","1","correct","50pct","50pct","0","0","0","0","0","0"
"011417","12:44:10","107","107","4.0.10.0","3","36","categorization_truth","attributeA","0","250","0","0","0","0","23","1","669","0","5","yes","50pct","50pct","0","0","0","0","0","0"
"011417","12:44:10","107","107","4.0.10.0","3","37","categorization_truth","attributeB","0","250","0","0","0","0","18","1","514","0","5","no","50pct","50pct","0","0","0","0","0","0"
"011417","12:44:10","107","107","4.0.10.0","3","38","categorization_truth","attributeA","0","250","0","0","0","0","23","1","411","0","3","right","50pct","50pct","0","0","0","0","0","0"
"011417","12:44:10","107","107","4.0.10.0","3","39","categorization_truth","attributeA","0","250","0","0","0","0","23","1","665","0","2","confirm","50pct","50pct","0","0","0","0","0","0"
"011417","12:44:10","107","107","4.0.10.0","3","40","categorization_truth","attributeA","0","250","0","0","0","0","23","1","704","0","1","correct","50pct","50pct","0","0","0","0","0","0"
"011417","12:44:10","107","107","4.0.10.0","3","41","categorization_truth","attributeA","0","250","0","0","0","0","23","1","1022","0","8","sure","50pct","50pct","0","0","0","0","0","0"
"011417","12:44:10","107","107","4.0.10.0","3","42","categorization_truth","attributeA","0","250","0","0","0","0","23","1","962","0","3","right","50pct","50pct","0","0","0","0","0","0"
"011417","12:44:10","107","107","4.0.10.0","3","43","categorization_truth","attributeB","0","250","0","0","0","0","18","1","847","0","6","invalid","50pct","50pct","0","0","0","0","0","0"
"011417","12:44:10","107","107","4.0.10.0","3","44","categorization_truth","attributeA","0","250","0","0","0","0","23","1","777","0","5","yes","50pct","50pct","0","0","0","0","0","0"
"011417","12:44:10","107","107","4.0.10.0","3","45","categorization_truth","attributeA","0","250","0","0","0","0","23","1","1045","0","4","accurate","50pct","50pct","0","0","0","0","0","0"
"011417","12:44:10","107","107","4.0.10.0","3","46","categorization_truth","attributeB","0","250","0","0","0","0","18","1","1871","0","1","incorrect","50pct","50pct","0","0","0","0","0","0"
"011417","12:44:10","107","107","4.0.10.0","3","47","categorization_truth","attributeA","0","250","0","0","0","0","23","0","1319","0","7","definite","50pct","50pct","0","1","X","75pct","50pct","766"
"011417","12:44:10","107","107","4.0.10.0","3","48","categorization_truth","attributeA","0","250","0","0","0","0","23","0","1120","0","6","valid","50pct","50pct","0","1","X","75pct","50pct","799"
"011417","12:44:10","107","107","4.0.10.0","3","49","categorization_truth","attributeB","0","250","0","0","0","0","18","1","687","0","4","inaccurate","50pct","50pct","0","0","0","0","0","0"
"011417","12:44:10","107","107","4.0.10.0","3","50","categorization_truth","attributeB","0","250","0","0","0","0","18","1","1055","0","7","inexact","50pct","50pct","0","0","0","0","0","0"
"011417","12:44:10","107","107","4.0.10.0","3","51","categorization_truth","attributeB","0","250","0","0","0","0","18","1","622","0","8","untrue","50pct","50pct","0","0","0","0","0","0"
"011417","12:44:10","107","107","4.0.10.0","3","52","categorization_truth","attributeA","0","250","0","0","0","0","23","1","567","0","3","right","50pct","50pct","0","0","0","0","0","0"
"011417","12:44:10","107","107","4.0.10.0","3","53","categorization_truth","attributeA","0","250","0","0","0","0","23","1","522","0","1","correct","50pct","50pct","0","0","0","0","0","0"
"011417","12:44:10","107","107","4.0.10.0","3","54","categorization_truth","attributeA","0","250","0","0","0","0","23","1","596","0","8","sure","50pct","50pct","0","0","0","0","0","0"
"011417","12:44:10","107","107","4.0.10.0","3","55","categorization_truth","attributeA","0","250","0","0","0","0","23","1","946","0","6","valid","50pct","50pct","0","0","0","0","0","0"
"011417","12:44:10","107","107","4.0.10.0","3","56","categorization_truth","attributeA","0","250","0","0","0","0","23","1","666","0","2","confirm","50pct","50pct","0","0","0","0","0","0"
"011417","12:44:10","107","107","4.0.10.0","3","57","categorization_truth","attributeA","0","250","0","0","0","0","23","1","999","0","4","accurate","50pct","50pct","0","0","0","0","0","0"
"011417","12:44:10","107","107","4.0.10.0","3","58","categorization_truth","attributeB","0","250","0","0","0","0","18","1","692","0","2","deny","50pct","50pct","0","0","0","0","0","0"
"011417","12:44:10","107","107","4.0.10.0","3","59","categorization_truth","attributeA","0","250","0","0","0","0","23","1","632","0","5","yes","50pct","50pct","0","0","0","0","0","0"
"011417","12:44:10","107","107","4.0.10.0","3","60","categorization_truth","attributeB","0","250","0","0","0","0","18","1","562","0","5","no","50pct","50pct","0","0","0","0","0","0"
"011417","12:44:10","107","107","4.0.10.0","3","61","categorization_truth","attributeB","0","250","0","0","0","0","18","1","632","0","4","inaccurate","50pct","50pct","0","0","0","0","0","0"
"011417","12:44:10","107","107","4.0.10.0","3","62","categorization_truth","attributeB","0","250","0","0","0","0","18","1","650","0","6","invalid","50pct","50pct","0","0","0","0","0","0"
"011417","12:44:10","107","107","4.0.10.0","3","63","categorization_truth","attributeB","0","250","0","0","0","0","18","1","411","0","1","incorrect","50pct","50pct","0","0","0","0","0","0"
"011417","12:44:10","107","107","4.0.10.0","3","64","categorization_truth","attributeA","0","250","0","0","0","0","23","0","1032","0","7","definite","50pct","50pct","0","1","X","75pct","50pct","566"
"011417","12:44:10","107","107","4.0.10.0","3","65","categorization_truth","attributeA","0","250","0","0","0","0","23","1","472","0","2","confirm","50pct","50pct","0","0","0","0","0","0"
"011417","12:44:10","107","107","4.0.10.0","3","66","categorization_truth","attributeB","0","250","0","0","0","0","18","1","487","0","3","wrong","50pct","50pct","0","0","0","0","0","0"
"011417","12:44:10","107","107","4.0.10.0","3","67","categorization_truth","attributeA","0","250","0","0","0","0","23","0","1791","0","7","definite","50pct","50pct","0","1","X","75pct","50pct","949"
"011417","12:44:10","107","107","4.0.10.0","3","68","categorization_truth","attributeB","0","250","0","0","0","0","18","1","612","0","8","untrue","50pct","50pct","0","0","0","0","0","0"
"011417","12:44:10","107","107","4.0.10.0","3","69","categorization_truth","attributeB","0","250","0","0","0","0","18","0","1151","0","6","invalid","50pct","50pct","0","1","X","75pct","50pct","766"
"011417","12:44:10","107","107","4.0.10.0","3","70","categorization_truth","attributeB","0","250","0","0","0","0","18","1","796","0","2","deny","50pct","50pct","0","0","0","0","0","0"
"011417","12:44:10","107","107","4.0.10.0","3","71","categorization_truth","attributeA","0","250","0","0","0","0","23","1","662","0","6","valid","50pct","50pct","0","0","0","0","0","0"
"011417","12:44:10","107","107","4.0.10.0","3","72","categorization_truth","attributeB","0","250","0","0","0","0","18","1","753","0","3","wrong","50pct","50pct","0","0","0","0","0","0"
"011417","12:44:10","107","107","4.0.10.0","3","73","categorization_truth","attributeA","0","250","0","0","0","0","23","1","1099","0","1","correct","50pct","50pct","0","0","0","0","0","0"
"011417","12:44:10","107","107","4.0.10.0","3","74","categorization_truth","attributeB","0","250","0","0","0","0","18","1","702","0","4","inaccurate","50pct","50pct","0","0","0","0","0","0"
"011417","12:44:10","107","107","4.0.10.0","3","75","categorization_truth","attributeB","0","250","0","0","0","0","18","1","675","0","7","inexact","50pct","50pct","0","0","0","0","0","0"
"011417","12:44:10","107","107","4.0.10.0","3","76","categorization_truth","attributeA","0","250","0","0","0","0","23","1","833","0","3","right","50pct","50pct","0","0","0","0","0","0"
"011417","12:44:10","107","107","4.0.10.0","3","77","categorization_truth","attributeA","0","250","0","0","0","0","23","0","972","0","4","accurate","50pct","50pct","0","1","X","75pct","50pct","599"
"011417","12:44:10","107","107","4.0.10.0","3","78","categorization_truth","attributeA","0","250","0","0","0","0","23","1","635","0","5","yes","50pct","50pct","0","0","0","0","0","0"
"011417","12:44:10","107","107","4.0.10.0","3","79","categorization_truth","attributeB","0","250","0","0","0","0","18","1","494","0","5","no","50pct","50pct","0","0","0","0","0","0"
"011417","12:44:10","107","107","4.0.10.0","3","80","categorization_truth","attributeA","0","250","0","0","0","0","23","1","720","0","8","sure","50pct","50pct","0","0","0","0","0","0"
"011417","12:44:10","107","107","4.0.10.0","3","81","categorization_truth","attributeB","0","250","0","0","0","0","18","1","565","0","1","incorrect","50pct","50pct","0","0","0","0","0","0"
"011417","00:30:28","104","104","4.0.10.0","1","2","categorization_truth","attributeA","0","250","0","0","0","0","23","1","164","0","6","valid","50pct","50pct","1","0","0","0","0","0"
"011417","00:30:28","104","104","4.0.10.0","1","3","categorization_truth","attributeB","0","250","0","0","0","0","18","1","2179","0","8","untrue","50pct","50pct","0","0","0","0","0","0"
"011417","00:30:28","104","104","4.0.10.0","1","4","categorization_truth","attributeB","0","250","0","0","0","0","18","1","1777","0","4","inaccurate","50pct","50pct","0","0","0","0","0","0"
"011417","00:30:28","104","104","4.0.10.0","1","5","categorization_truth","attributeA","0","250","0","0","0","0","23","0","2757","0","7","definite","50pct","50pct","0","1","X","75pct","50pct","1437"
"011417","00:30:28","104","104","4.0.10.0","1","6","categorization_truth","attributeA","0","250","0","0","0","0","23","1","1448","0","4","accurate","50pct","50pct","0","0","0","0","0","0"
"011417","00:30:28","104","104","4.0.10.0","1","7","categorization_truth","attributeA","0","250","0","0","0","0","23","1","901","0","3","right","50pct","50pct","0","0","0","0","0","0"
"011417","00:30:28","104","104","4.0.10.0","1","8","categorization_truth","attributeA","0","250","0","0","0","0","23","1","839","0","8","sure","50pct","50pct","0","0","0","0","0","0"
"011417","00:30:28","104","104","4.0.10.0","1","9","categorization_truth","attributeA","0","250","0","0","0","0","23","1","829","0","2","confirm","50pct","50pct","0","0","0","0","0","0"
"011417","00:30:28","104","104","4.0.10.0","1","10","categorization_truth","attributeA","0","250","0","0","0","0","23","1","789","0","1","correct","50pct","50pct","0","0","0","0","0","0"
"011417","00:30:28","104","104","4.0.10.0","1","11","categorization_truth","attributeB","0","250","0","0","0","0","18","1","757","0","5","no","50pct","50pct","0","0","0","0","0","0"
"011417","00:30:28","104","104","4.0.10.0","1","12","categorization_truth","attributeB","0","250","0","0","0","0","18","1","891","0","3","wrong","50pct","50pct","0","0","0","0","0","0"
"011417","00:30:28","104","104","4.0.10.0","1","13","categorization_truth","attributeA","0","250","0","0","0","0","23","1","849","0","5","yes","50pct","50pct","0","0","0","0","0","0"
"011417","00:30:28","104","104","4.0.10.0","1","14","categorization_truth","attributeB","0","250","0","0","0","0","18","0","2514","0","7","inexact","50pct","50pct","0","1","X","75pct","50pct","1119"
"011417","00:30:28","104","104","4.0.10.0","1","15","categorization_truth","attributeA","0","250","0","0","0","0","23","1","856","0","2","confirm","50pct","50pct","0","0","0","0","0","0"
"011417","00:30:28","104","104","4.0.10.0","1","16","categorization_truth","attributeB","0","250","0","0","0","0","18","1","1209","0","2","deny","50pct","50pct","0","0","0","0","0","0"
"011417","00:30:28","104","104","4.0.10.0","1","17","categorization_truth","attributeA","0","250","0","0","0","0","23","1","940","0","4","accurate","50pct","50pct","0","0","0","0","0","0"
"011417","00:30:28","104","104","4.0.10.0","1","18","categorization_truth","attributeB","0","250","0","0","0","0","18","1","1208","0","6","invalid","50pct","50pct","0","0","0","0","0","0"
"011417","00:30:28","104","104","4.0.10.0","1","19","categorization_truth","attributeA","0","250","0","0","0","0","23","1","1561","0","6","valid","50pct","50pct","0","0","0","0","0","0"
"011417","00:30:28","104","104","4.0.10.0","1","20","categorization_truth","attributeB","0","250","0","0","0","0","18","1","1186","0","1","incorrect","50pct","50pct","0","0","0","0","0","0"
"011417","00:30:28","104","104","4.0.10.0","1","21","categorization_truth","attributeA","0","250","0","0","0","0","23","1","1020","0","1","correct","50pct","50pct","0","0","0","0","0","0"
"011417","00:30:28","104","104","4.0.10.0","1","22","categorization_truth","attributeA","0","250","0","0","0","0","23","1","925","0","3","right","50pct","50pct","0","0","0","0","0","0"
"011417","00:30:28","104","104","4.0.10.0","1","23","categorization_truth","attributeA","0","250","0","0","0","0","23","0","2713","0","7","definite","50pct","50pct","0","1","X","75pct","50pct","1253"
"011417","00:30:28","104","104","4.0.10.0","1","24","categorization_truth","attributeA","0","250","0","0","0","0","23","1","874","0","8","sure","50pct","50pct","0","0","0","0","0","0"
"011417","00:30:28","104","104","4.0.10.0","1","25","categorization_truth","attributeB","0","250","0","0","0","0","18","1","1310","0","2","deny","50pct","50pct","0","0","0","0","0","0"
"011417","00:30:28","104","104","4.0.10.0","1","26","categorization_truth","attributeB","0","250","0","0","0","0","18","0","2552","0","7","inexact","50pct","50pct","0","1","X","75pct","50pct","1671"
"011417","00:30:28","104","104","4.0.10.0","1","27","categorization_truth","attributeA","0","250","0","0","0","0","23","1","1141","0","5","yes","50pct","50pct","0","0","0","0","0","0"
"011417","00:30:28","104","104","4.0.10.0","1","28","categorization_truth","attributeA","0","250","0","0","0","0","23","1","1970","0","7","definite","50pct","50pct","0","0","0","0","0","0"
"011417","00:30:28","104","104","4.0.10.0","1","29","categorization_truth","attributeA","0","250","0","0","0","0","23","1","859","0","3","right","50pct","50pct","0","0","0","0","0","0"
"011417","00:30:28","104","104","4.0.10.0","1","30","categorization_truth","attributeA","0","250","0","0","0","0","23","1","791","0","8","sure","50pct","50pct","0","0","0","0","0","0"
"011417","00:30:28","104","104","4.0.10.0","1","31","categorization_truth","attributeB","0","250","0","0","0","0","18","1","840","0","5","no","50pct","50pct","0","0","0","0","0","0"
"011417","00:30:28","104","104","4.0.10.0","1","32","categorization_truth","attributeB","0","250","0","0","0","0","18","1","1681","0","4","inaccurate","50pct","50pct","0","0","0","0","0","0"
"011417","00:30:28","104","104","4.0.10.0","1","33","categorization_truth","attributeA","0","250","0","0","0","0","23","1","879","0","5","yes","50pct","50pct","0","0","0","0","0","0"
"011417","00:30:28","104","104","4.0.10.0","1","34","categorization_truth","attributeA","0","250","0","0","0","0","23","1","964","0","1","correct","50pct","50pct","0","0","0","0","0","0"
"011417","00:30:28","104","104","4.0.10.0","1","35","categorization_truth","attributeB","0","250","0","0","0","0","18","1","1096","0","6","invalid","50pct","50pct","0","0","0","0","0","0"
"011417","00:30:28","104","104","4.0.10.0","1","36","categorization_truth","attributeB","0","250","0","0","0","0","18","1","940","0","3","wrong","50pct","50pct","0","0","0","0","0","0"
"011417","00:30:28","104","104","4.0.10.0","1","37","categorization_truth","attributeA","0","250","0","0","0","0","23","1","943","0","4","accurate","50pct","50pct","0","0","0","0","0","0"
"011417","00:30:28","104","104","4.0.10.0","1","38","categorization_truth","attributeB","0","250","0","0","0","0","18","0","4491","0","1","incorrect","50pct","50pct","0","1","X","75pct","50pct","1487"
"011417","00:30:28","104","104","4.0.10.0","1","39","categorization_truth","attributeB","0","250","0","0","0","0","18","1","1271","0","8","untrue","50pct","50pct","0","0","0","0","0","0"
"011417","00:30:28","104","104","4.0.10.0","1","40","categorization_truth","attributeB","0","250","0","0","0","0","18","1","1737","0","8","untrue","50pct","50pct","0","0","0","0","0","0"
"011417","00:30:28","104","104","4.0.10.0","1","41","categorization_truth","attributeA","0","250","0","0","0","0","23","1","1104","0","6","valid","50pct","50pct","0","0","0","0","0","0"
"011417","00:30:28","104","104","4.0.10.0","1","42","categorization_truth","attributeB","0","250","0","0","0","0","18","1","1065","0","2","deny","50pct","50pct","0","0","0","0","0","0"
"011417","00:30:28","104","104","4.0.10.0","1","43","categorization_truth","attributeB","0","250","0","0","0","0","18","1","1261","0","7","inexact","50pct","50pct","0","0","0","0","0","0"
"011417","00:30:28","104","104","4.0.10.0","1","44","categorization_truth","attributeA","0","250","0","0","0","0","23","1","843","0","2","confirm","50pct","50pct","0","0","0","0","0","0"
"011417","00:30:28","104","104","4.0.10.0","1","45","categorization_truth","attributeA","0","250","0","0","0","0","23","1","1202","0","6","valid","50pct","50pct","0","0","0","0","0","0"
"011417","00:30:28","104","104","4.0.10.0","1","46","categorization_truth","attributeB","0","250","0","0","0","0","18","1","1048","0","1","incorrect","50pct","50pct","0","0","0","0","0","0"
"011417","00:30:28","104","104","4.0.10.0","1","47","categorization_truth","attributeB","0","250","0","0","0","0","18","1","2008","0","4","inaccurate","50pct","50pct","0","0","0","0","0","0"
"011417","00:30:28","104","104","4.0.10.0","1","48","categorization_truth","attributeB","0","250","0","0","0","0","18","1","1167","0","5","no","50pct","50pct","0","0","0","0","0","0"
"011417","00:30:28","104","104","4.0.10.0","1","49","categorization_truth","attributeB","0","250","0","0","0","0","18","1","1498","0","6","invalid","50pct","50pct","0","0","0","0","0","0"
"011417","00:30:28","104","104","4.0.10.0","1","50","categorization_truth","attributeA","0","250","0","0","0","0","23","1","805","0","8","sure","50pct","50pct","0","0","0","0","0","0"
"011417","00:30:28","104","104","4.0.10.0","1","51","categorization_truth","attributeB","0","250","0","0","0","0","18","1","913","0","3","wrong","50pct","50pct","0","0","0","0","0","0"
"011417","00:30:28","104","104","4.0.10.0","1","52","categorization_truth","attributeB","0","250","0","0","0","0","18","1","2612","0","7","inexact","50pct","50pct","0","0","0","0","0","0"
"011417","00:30:28","104","104","4.0.10.0","1","53","categorization_truth","attributeB","0","250","0","0","0","0","18","1","2296","0","4","inaccurate","50pct","50pct","0","0","0","0","0","0"
